,Unnamed: 0,_id,iterationName,phase,finalCount,GID,workerID,assignmentID,hitID,prolificID,studyID,sessionID,score,totalScore,trial,sectionTrial,num,base,targ,resp,correct,take,distractions,trialStartTime,takeStartTime,trialTime,takeTime,RT,WT,initTime,endTime,gender,age,comments,understood,totalLength,strategy,strategy_other,expt,cond,targetWord,targetNum,responseSide,responseNumber,responseWord,otherNumber,otherWord,missed,syntax,count,duplicate,failedGame,nonsenseGame,failedOutlier,distracted,distractedGame,manualExclude,incomplete,generalized,prim,add,mult,exp,feature_sum,maxrule,lexicon,gloss,targ_gloss,numSyls,normedWT,CT,freq,elapsedTime,delay,addcount,multcount,rulecount,ppd,dpp
63,87,61e050d7aa09f84b60e4b0b5,run1,quiz,False,3.0,,,,3.0,61df8999cc7c1c6984f5f11d,61e0502b5d5c43ac54465f14,$0.58,58.0,20.0,6.0,6.0,4.0,se-ki,seki,1.0,0.0,{},1642090708330.0,1642090708330.0,1669.0,1669.0,0.86,0.809,1642090628729.0,1642090709999.0,,,,,,,,1,,,,,,,,,,True,True,False,False,False,False,False,False,False,False,True,0.0,1.0,0.0,0.0,1.0,2.0,"{'na': 1.0, 'ki': 2.0, 'tu': 3.0, 'se': 4.0}",4-2,4-2,2.0,0.20225,1.06225,0,81270.0,,3.0,3.0,3.0,,
78,109,61e050e8aa09f84b60e4b0d8,run1,quiz,False,3.0,,,,3.0,61df8999cc7c1c6984f5f11d,61e0502b5d5c43ac54465f14,$0.76,76.0,26.0,6.0,6.0,4.0,se-ki,seki,1.0,0.0,{},1642090726057.0,1642090726057.0,1342.0,1342.0,0.35,0.992,1642090628729.0,1642090727399.0,,,,,,,,1,,,,,,,,,,True,True,False,False,False,False,False,False,False,False,True,0.0,1.0,0.0,0.0,1.0,2.0,"{'na': 1.0, 'ki': 2.0, 'tu': 3.0, 'se': 4.0}",4-2,4-2,2.0,0.248,0.598,1,98670.0,6.0,5.0,5.0,5.0,0.16666666666666666,3.0
100,135,61e050f9aa09f84b60e4b0fc,run1,quiz,False,2.0,,,,2.0,61df8999cc7c1c6984f5f11d,61e0501bfd26a345e8c26caa,$0.81,81.0,27.0,7.0,7.0,5.0,ka-nu,kanu,1.0,0.0,{},1642090743487.0,1642090743487.0,1930.0,1930.0,0.939,0.991,1642090619434.0,1642090745417.0,,,,,,,,1,,,,,,,,,,True,True,False,False,False,False,False,False,False,False,True,0.0,1.0,0.0,0.0,1.0,2.0,"{'ti': 1.0, 'nu': 2.0, 'he': 3.0, 'so': 4.0, 'ka': 5.0}",5-2,5-2,2.0,0.24775,1.18675,0,125983.0,,3.0,3.0,3.0,,
103,139,61e050fbaa09f84b60e4b102,run1,quiz,False,3.0,,,,3.0,61df8999cc7c1c6984f5f11d,61e0502b5d5c43ac54465f14,$0.97,97.0,33.0,6.0,6.0,4.0,se-ki,seki,1.0,0.0,{},1642090745362.0,1642090745362.0,1021.0,1021.0,0.284,0.737,1642090628729.0,1642090746383.0,,,,,,,,1,,,,,,,,,,True,True,False,False,False,False,False,False,False,False,True,0.0,1.0,0.0,0.0,1.0,2.0,"{'na': 1.0, 'ki': 2.0, 'tu': 3.0, 'se': 4.0}",4-2,4-2,2.0,0.18425,0.4682499999999999,2,117654.0,7.0,8.0,8.0,8.0,0.2857142857142857,2.3333333333333335
116,154,61e05106aa09f84b60e4b11d,run1,quiz,False,3.0,,,,3.0,61df8999cc7c1c6984f5f11d,61e0502b5d5c43ac54465f14,$1.03,103.0,35.0,8.0,8.0,4.0,ki-se,kise,1.0,0.0,{},1642090755722.0,1642090755722.0,1406.0,1406.0,0.828,0.578,1642090628729.0,1642090757128.0,,,,,,,,1,,,,,,,,,,True,True,False,False,False,False,False,False,False,False,True,0.0,0.0,1.0,0.0,1.0,3.0,"{'na': 1.0, 'ki': 2.0, 'tu': 3.0, 'se': 4.0}",2-4,2-4,2.0,0.1445,0.9725,0,128399.0,,9.0,9.0,9.0,,
119,158,61e0510aaa09f84b60e4b127,run1,quiz,False,2.0,,,,2.0,61df8999cc7c1c6984f5f11d,61e0501bfd26a345e8c26caa,$1.02,102.0,34.0,7.0,7.0,5.0,ka-nu,kanu,1.0,0.0,{},1642090760879.0,1642090760879.0,1718.0,1718.0,0.056,1.662,1642090619434.0,1642090762597.0,,,,,,,,1,,,,,,,,,,True,True,False,False,False,False,False,False,False,False,True,0.0,1.0,0.0,0.0,1.0,2.0,"{'ti': 1.0, 'nu': 2.0, 'he': 3.0, 'so': 4.0, 'ka': 5.0}",5-2,5-2,2.0,0.4155,0.4715,1,143163.0,7.0,5.0,5.0,5.0,0.14285714285714285,3.5
129,170,61e05113aa09f84b60e4b13a,run1,quiz,False,3.0,,,,3.0,61df8999cc7c1c6984f5f11d,61e0502b5d5c43ac54465f14,$1.21,121.0,41.0,6.0,6.0,4.0,se-ki,seki,1.0,0.0,{},1642090768490.0,1642090768490.0,1638.0,1638.0,0.348,1.29,1642090628729.0,1642090770128.0,,,,,,,,1,,,,,,,,,,True,True,False,False,False,False,False,False,False,False,True,0.0,1.0,0.0,0.0,1.0,2.0,"{'na': 1.0, 'ki': 2.0, 'tu': 3.0, 'se': 4.0}",4-2,4-2,2.0,0.3225,0.6705,3,141399.0,8.0,11.0,11.0,11.0,0.375,2.0
134,177,61e05117aa09f84b60e4b146,run1,quiz,False,3.0,,,,3.0,61df8999cc7c1c6984f5f11d,61e0502b5d5c43ac54465f14,$1.27,127.0,43.0,8.0,8.0,4.0,ki-se,kise,1.0,0.0,{},1642090773602.0,1642090773602.0,1062.0,1062.0,0.348,0.714,1642090628729.0,1642090774664.0,,,,,,,,1,,,,,,,,,,True,True,False,False,False,False,False,False,False,False,True,0.0,0.0,1.0,0.0,1.0,3.0,"{'na': 1.0, 'ki': 2.0, 'tu': 3.0, 'se': 4.0}",2-4,2-4,2.0,0.1785,0.5265,1,145935.0,8.0,12.0,12.0,12.0,0.125,4.0
154,198,61e05127aa09f84b60e4b169,run1,quiz,False,2.0,,,,2.0,61df8999cc7c1c6984f5f11d,61e0501bfd26a345e8c26caa,$1.26,126.0,42.0,7.0,7.0,5.0,ka-nu,kanu,1.0,0.0,{},1642090789865.0,1642090789865.0,1748.0,1748.0,0.266,1.482,1642090619434.0,1642090791613.0,,,,,,,,1,,,,,,,,,,True,True,False,False,False,False,False,False,False,False,True,0.0,1.0,0.0,0.0,1.0,2.0,"{'ti': 1.0, 'nu': 2.0, 'he': 3.0, 'so': 4.0, 'ka': 5.0}",5-2,5-2,2.0,0.3705,0.6365000000000001,2,172179.0,8.0,8.0,8.0,8.0,0.25,2.6666666666666665
163,208,61e0512eaa09f84b60e4b180,run1,quiz,False,3.0,,,,3.0,61df8999cc7c1c6984f5f11d,61e0502b5d5c43ac54465f14,$1.48,148.0,50.0,6.0,6.0,4.0,se-ki,seki,1.0,0.0,{},1642090796315.0,1642090796315.0,1125.0,1125.0,0.356,0.769,1642090628729.0,1642090797440.0,,,,,,,,1,,,,,,,,,,True,True,False,False,False,False,False,False,False,False,True,0.0,1.0,0.0,0.0,1.0,2.0,"{'na': 1.0, 'ki': 2.0, 'tu': 3.0, 'se': 4.0}",4-2,4-2,2.0,0.19225,0.54825,4,168711.0,9.0,15.0,15.0,15.0,0.4444444444444444,1.8
168,214,61e05133aa09f84b60e4b18c,run1,quiz,False,3.0,,,,3.0,61df8999cc7c1c6984f5f11d,61e0502b5d5c43ac54465f14,$1.54,154.0,52.0,8.0,8.0,4.0,ki-se,kise,1.0,0.0,{},1642090801371.0,1642090801371.0,1053.0,1053.0,0.445,0.608,1642090628729.0,1642090802424.0,,,,,,,,1,,,,,,,,,,True,True,False,False,False,False,False,False,False,False,True,0.0,0.0,1.0,0.0,1.0,3.0,"{'na': 1.0, 'ki': 2.0, 'tu': 3.0, 'se': 4.0}",2-4,2-4,2.0,0.152,0.597,2,173695.0,9.0,16.0,16.0,16.0,0.2222222222222222,3.0
196,248,61e0514aaa09f84b60e4b1c9,run1,quiz,False,2.0,,,,2.0,61df8999cc7c1c6984f5f11d,61e0501bfd26a345e8c26caa,$1.52,152.0,51.0,7.0,7.0,5.0,ka-nu,kanu,1.0,0.0,{},1642090823940.0,1642090823940.0,2932.0,2932.0,1.907,1.025,1642090619434.0,1642090826872.0,,,,,,,,1,,,,,,,,,,True,True,False,False,False,False,False,False,False,False,True,0.0,1.0,0.0,0.0,1.0,2.0,"{'ti': 1.0, 'nu': 2.0, 'he': 3.0, 'so': 4.0, 'ka': 5.0}",5-2,5-2,2.0,0.25625,2.16325,3,207438.0,9.0,12.0,12.0,12.0,0.3333333333333333,2.25
197,250,61e0514daa09f84b60e4b1d0,run1,quiz,True,3.0,,,,3.0,61df8999cc7c1c6984f5f11d,61e0502b5d5c43ac54465f14,$1.78,178.0,60.0,6.0,6.0,4.0,se-ki,seki,1.0,0.0,{},1642090824115.0,1642090824115.0,3886.0,3886.0,1.253,2.633,1642090628729.0,1642090828001.0,,,,,,,,1,,,,,,,,,,True,True,False,False,False,False,False,False,False,False,True,0.0,1.0,0.0,0.0,1.0,2.0,"{'na': 1.0, 'ki': 2.0, 'tu': 3.0, 'se': 4.0}",4-2,4-2,2.0,0.65825,1.91125,5,199272.0,10.0,20.0,20.0,20.0,0.5,1.6666666666666667
208,261,61e05152aa09f84b60e4b1e5,run1,quiz,True,3.0,,,,3.0,61df8999cc7c1c6984f5f11d,61e0502b5d5c43ac54465f14,$1.84,184.0,62.0,8.0,8.0,4.0,ki-se,kise,1.0,0.0,{},1642090831261.0,1642090831261.0,2276.0,2276.0,1.147,1.129,1642090628729.0,1642090833537.0,,,,,,,,1,,,,,,,,,,True,True,False,False,False,False,False,False,False,False,True,0.0,0.0,1.0,0.0,1.0,3.0,"{'na': 1.0, 'ki': 2.0, 'tu': 3.0, 'se': 4.0}",2-4,2-4,2.0,0.28225,1.42925,3,204808.0,10.0,21.0,21.0,21.0,0.3,2.5
216,272,61e0515aaa09f84b60e4b1f7,run1,quiz,False,2.0,,,,2.0,61df8999cc7c1c6984f5f11d,61e0501bfd26a345e8c26caa,$1.61,161.0,54.0,0.0,10.0,5.0,nu-ka,nuka,1.0,0.0,{},1642090840423.0,1642090840423.0,2459.0,2459.0,1.322,1.137,1642090619434.0,1642090842882.0,,,,,,,,1,,,,,,,,,,True,True,False,False,False,False,False,False,False,False,True,0.0,0.0,1.0,0.0,1.0,3.0,"{'ti': 1.0, 'nu': 2.0, 'he': 3.0, 'so': 4.0, 'ka': 5.0}",2-5,2-5,2.0,0.28425,1.6062500000000002,0,223448.0,,14.0,14.0,14.0,,
233,295,61e05168aa09f84b60e4b21e,run1,quiz,False,5.0,,,,5.0,61df8999cc7c1c6984f5f11d,61e0503a92a79e2ccaa7c81c,$0.79,79.0,27.0,7.0,7.0,5.0,ku-to,kuto,1.0,0.0,{},1642090851773.0,1642090851773.0,2940.0,2940.0,1.308,1.632,1642090626149.0,1642090854713.0,,,,,,,,1,,,,,,,,,,True,True,False,False,False,False,False,False,False,False,True,0.0,1.0,0.0,0.0,1.0,2.0,"{'ne': 1.0, 'to': 2.0, 'ha': 3.0, 'si': 4.0, 'ku': 5.0}",5-2,5-2,2.0,0.408,1.716,0,228564.0,,3.0,3.0,3.0,,
239,301,61e0516baa09f84b60e4b228,run1,quiz,True,2.0,,,,2.0,61df8999cc7c1c6984f5f11d,61e0501bfd26a345e8c26caa,$1.82,182.0,61.0,7.0,7.0,5.0,ka-nu,kanu,1.0,0.0,{},1642090858443.0,1642090858443.0,1606.0,1606.0,0.672,0.934,1642090619434.0,1642090860049.0,,,,,,,,1,,,,,,,,,,True,True,False,False,False,False,False,False,False,False,True,0.0,1.0,0.0,0.0,1.0,2.0,"{'ti': 1.0, 'nu': 2.0, 'he': 3.0, 'so': 4.0, 'ka': 5.0}",5-2,5-2,2.0,0.2335,0.9055,4,240615.0,10.0,16.0,16.0,16.0,0.4,2.0
252,316,61e05173aa09f84b60e4b23f,run1,quiz,True,2.0,,,,2.0,61df8999cc7c1c6984f5f11d,61e0501bfd26a345e8c26caa,$1.91,191.0,64.0,0.0,10.0,5.0,nu-ka,nuka,1.0,0.0,{},1642090866431.0,1642090866431.0,1690.0,1690.0,0.881,0.809,1642090619434.0,1642090868121.0,,,,,,,,1,,,,,,,,,,True,True,False,False,False,False,False,False,False,False,True,0.0,0.0,1.0,0.0,1.0,3.0,"{'ti': 1.0, 'nu': 2.0, 'he': 3.0, 'so': 4.0, 'ka': 5.0}",2-5,2-5,2.0,0.20225,1.08325,1,248687.0,10.0,18.0,18.0,18.0,0.1,5.0
255,319,61e05176aa09f84b60e4b245,run1,quiz,False,4.0,,,,4.0,61df8999cc7c1c6984f5f11d,61e0502c337b071611866160,$0.6,60.0,20.0,6.0,6.0,4.0,ko-he,kohe,1.0,0.0,{},1642090863185.0,1642090863185.0,5897.0,5897.0,2.663,3.234,1642090636188.0,1642090869082.0,,,,,,,,1,,,,,,,,,,True,True,False,False,False,False,False,False,False,False,True,0.0,1.0,0.0,0.0,1.0,2.0,"{'nu': 1.0, 'he': 2.0, 'sa': 3.0, 'ko': 4.0}",4-2,4-2,2.0,0.8085,3.4715,0,232894.0,,3.0,3.0,3.0,,
268,335,61e05184aa09f84b60e4b267,run1,quiz,False,5.0,,,,5.0,61df8999cc7c1c6984f5f11d,61e0503a92a79e2ccaa7c81c,$1,100.0,34.0,7.0,7.0,5.0,ku-to,kuto,1.0,0.0,{},1642090879110.0,1642090879110.0,3293.0,3293.0,1.25,2.043,1642090626149.0,1642090882403.0,,,,,,,,1,,,,,,,,,,True,True,False,False,False,False,False,False,False,False,True,0.0,1.0,0.0,0.0,1.0,2.0,"{'ne': 1.0, 'to': 2.0, 'ha': 3.0, 'si': 4.0, 'ku': 5.0}",5-2,5-2,2.0,0.51075,1.76075,1,256254.0,7.0,5.0,5.0,5.0,0.14285714285714285,3.5
280,353,61e0518eaa09f84b60e4b286,run1,quiz,False,6.0,,,,6.0,61df8999cc7c1c6984f5f11d,61e0502413f7285ab3af7ba5,$0.81,81.0,27.0,7.0,7.0,5.0,ta-ne,tane,1.0,0.0,{},1642090887318.0,1642090887318.0,7426.0,7426.0,2.944,4.482,1642090662014.0,1642090894744.0,,,,,,,,1,,,,,,,,,,True,True,False,False,False,False,False,False,False,False,True,0.0,1.0,0.0,0.0,1.0,2.0,"{'ho': 1.0, 'ne': 2.0, 'ki': 3.0, 'su': 4.0, 'ta': 5.0}",5-2,5-2,2.0,1.1205,4.0645,0,232730.0,,3.0,3.0,3.0,,
314,389,61e051a6aa09f84b60e4b2c8,run1,quiz,False,4.0,,,,4.0,61df8999cc7c1c6984f5f11d,61e0502c337b071611866160,$0.78,78.0,26.0,6.0,6.0,4.0,ko-he,kohe,1.0,0.0,{},1642090908823.0,1642090908823.0,8163.0,8163.0,3.741,4.422,1642090636188.0,1642090916986.0,,,,,,,,1,,,,,,,,,,True,True,False,False,False,False,False,False,False,False,True,0.0,1.0,0.0,0.0,1.0,2.0,"{'nu': 1.0, 'he': 2.0, 'sa': 3.0, 'ko': 4.0}",4-2,4-2,2.0,1.1055,4.8465,1,280798.0,6.0,5.0,5.0,5.0,0.16666666666666666,3.0
316,391,61e051a6aa09f84b60e4b2ca,run1,quiz,False,5.0,,,,5.0,61df8999cc7c1c6984f5f11d,61e0503a92a79e2ccaa7c81c,$1.24,124.0,42.0,7.0,7.0,5.0,ku-to,kuto,1.0,0.0,{},1642090914871.0,1642090914871.0,2432.0,2432.0,1.048,1.384,1642090626149.0,1642090917303.0,,,,,,,,1,,,,,,,,,,True,True,False,False,False,False,False,False,False,False,True,0.0,1.0,0.0,0.0,1.0,2.0,"{'ne': 1.0, 'to': 2.0, 'ha': 3.0, 'si': 4.0, 'ku': 5.0}",5-2,5-2,2.0,0.346,1.394,2,291154.0,8.0,8.0,8.0,8.0,0.25,2.6666666666666665
321,399,61e051acaa09f84b60e4b2d9,run1,quiz,False,7.0,,,,7.0,61df8999cc7c1c6984f5f11d,61e05034d9819c68472fe83d,$0.78,78.0,27.0,7.0,7.0,5.0,he-ka,heka,1.0,0.0,{},1642090922156.0,1642090922156.0,2874.0,2874.0,1.427,1.447,1642090690306.0,1642090925030.0,,,,,,,,1,,,,,,,,,,True,True,False,False,False,False,False,False,False,False,False,0.0,1.0,0.0,0.0,1.0,2.0,"{'no': 1.0, 'ka': 2.0, 'su': 3.0, 'ti': 4.0, 'he': 5.0}",5-2,5-2,2.0,0.36175,1.78875,0,234724.0,,3.0,3.0,3.0,,
325,405,61e051b1aa09f84b60e4b2e4,run1,quiz,False,6.0,,,,6.0,61df8999cc7c1c6984f5f11d,61e0502413f7285ab3af7ba5,$1.02,102.0,34.0,7.0,7.0,5.0,ta-ne,tane,1.0,0.0,{},1642090923496.0,1642090923496.0,5470.0,5470.0,1.149,4.321,1642090662014.0,1642090928966.0,,,,,,,,1,,,,,,,,,,True,True,False,False,False,False,False,False,False,False,True,0.0,1.0,0.0,0.0,1.0,2.0,"{'ho': 1.0, 'ne': 2.0, 'ki': 3.0, 'su': 4.0, 'ta': 5.0}",5-2,5-2,2.0,1.08025,2.22925,1,266952.0,7.0,5.0,5.0,5.0,0.14285714285714285,3.5
348,432,61e051c4aa09f84b60e4b316,run1,quiz,False,8.0,,,,8.0,61df8999cc7c1c6984f5f11d,61e0503662209e1bd2040d38,$0.6,60.0,20.0,6.0,6.0,4.0,tu-ke,tuke,1.0,0.0,{},1642090932095.0,1642090932095.0,13274.0,13274.0,4.91,,1642090807617.0,1642090945369.0,,,,,,,,1,,,,,,,,,,True,True,False,False,False,False,False,False,False,False,True,0.0,1.0,0.0,0.0,1.0,2.0,"{'sa': 1.0, 'ke': 2.0, 'ho': 3.0, 'tu': 4.0}",4-2,4-2,2.0,,,0,137752.0,,3.0,3.0,3.0,,
358,442,61e051caaa09f84b60e4b326,run1,quiz,False,7.0,,,,7.0,61df8999cc7c1c6984f5f11d,61e05034d9819c68472fe83d,$0.99,99.0,34.0,7.0,7.0,5.0,he-ka,heka,1.0,0.0,{},1642090950989.0,1642090950989.0,4123.0,4123.0,2.721,1.402,1642090690306.0,1642090955112.0,,,,,,,,1,,,,,,,,,,True,True,False,False,False,False,False,False,False,False,False,0.0,1.0,0.0,0.0,1.0,2.0,"{'no': 1.0, 'ka': 2.0, 'su': 3.0, 'ti': 4.0, 'he': 5.0}",5-2,5-2,2.0,0.3505,3.0715,1,264806.0,7.0,5.0,5.0,5.0,0.14285714285714285,3.5
364,449,61e051ceaa09f84b60e4b333,run1,quiz,False,5.0,,,,5.0,61df8999cc7c1c6984f5f11d,61e0503a92a79e2ccaa7c81c,$1.51,151.0,51.0,7.0,7.0,5.0,ku-to,kuto,1.0,0.0,{},1642090953879.0,1642090953879.0,3078.0,3078.0,0.733,2.345,1642090626149.0,1642090956957.0,,,,,,,,1,,,,,,,,,,True,True,False,False,False,False,False,False,False,False,True,0.0,1.0,0.0,0.0,1.0,2.0,"{'ne': 1.0, 'to': 2.0, 'ha': 3.0, 'si': 4.0, 'ku': 5.0}",5-2,5-2,2.0,0.58625,1.31925,3,330808.0,9.0,12.0,12.0,12.0,0.3333333333333333,2.25
391,483,61e051e4aa09f84b60e4b376,run1,quiz,False,4.0,,,,4.0,61df8999cc7c1c6984f5f11d,61e0502c337b071611866160,$0.99,99.0,33.0,6.0,6.0,4.0,ko-he,kohe,1.0,0.0,{},1642090972855.0,1642090972855.0,6299.0,6299.0,2.144,4.155,1642090636188.0,1642090979154.0,,,,,,,,1,,,,,,,,,,True,True,False,False,False,False,False,False,False,False,True,0.0,1.0,0.0,0.0,1.0,2.0,"{'nu': 1.0, 'he': 2.0, 'sa': 3.0, 'ko': 4.0}",4-2,4-2,2.0,1.03875,3.1827500000000004,2,342966.0,7.0,8.0,8.0,8.0,0.2857142857142857,2.3333333333333335
395,488,61e051e7aa09f84b60e4b37e,run1,quiz,False,5.0,,,,5.0,61df8999cc7c1c6984f5f11d,61e0503a92a79e2ccaa7c81c,$1.6,160.0,54.0,0.0,10.0,5.0,to-ku,toku,1.0,0.0,{},1642090977897.0,1642090977897.0,3630.0,3630.0,2.395,1.235,1642090626149.0,1642090981527.0,,,,,,,,1,,,,,,,,,,True,True,False,False,False,False,False,False,False,False,True,0.0,0.0,1.0,0.0,1.0,3.0,"{'ne': 1.0, 'to': 2.0, 'ha': 3.0, 'si': 4.0, 'ku': 5.0}",2-5,2-5,2.0,0.30875,2.70375,0,355378.0,,14.0,14.0,14.0,,
396,489,61e051e7aa09f84b60e4b37f,run1,quiz,False,8.0,,,,8.0,61df8999cc7c1c6984f5f11d,61e0503662209e1bd2040d38,$0.77,77.0,26.0,6.0,6.0,4.0,tu-ke,tuke,1.0,0.0,{},1642090972949.0,1642090972949.0,7549.0,7549.0,5.59,1.959,1642090807617.0,1642090980499.0,,,,,,,,1,,,,,,,,,,True,True,False,False,False,False,False,False,False,False,True,0.0,1.0,0.0,0.0,1.0,2.0,"{'sa': 1.0, 'ke': 2.0, 'ho': 3.0, 'tu': 4.0}",4-2,4-2,2.0,0.48975,6.07975,1,172882.0,6.0,5.0,5.0,5.0,0.16666666666666666,3.0
400,493,61e051e8aa09f84b60e4b385,run1,quiz,False,6.0,,,,6.0,61df8999cc7c1c6984f5f11d,61e0502413f7285ab3af7ba5,$1.25,125.0,42.0,7.0,7.0,5.0,ta-ne,tane,1.0,0.0,{},1642090977832.0,1642090977832.0,6764.0,6764.0,4.461,2.303,1642090662014.0,1642090984596.0,,,,,,,,1,,,,,,,,,,True,True,False,False,False,False,False,False,False,False,True,0.0,1.0,0.0,0.0,1.0,2.0,"{'ho': 1.0, 'ne': 2.0, 'ki': 3.0, 'su': 4.0, 'ta': 5.0}",5-2,5-2,2.0,0.57575,5.0367500000000005,2,322582.0,7.0,8.0,8.0,8.0,0.2857142857142857,2.3333333333333335
418,515,61e051f5aa09f84b60e4b3ad,run1,quiz,False,7.0,,,,7.0,61df8999cc7c1c6984f5f11d,61e05034d9819c68472fe83d,$1.22,122.0,42.0,7.0,7.0,5.0,he-ka,heka,1.0,0.0,{},1642090993838.0,1642090993838.0,3505.0,3505.0,2.224,1.281,1642090690306.0,1642090997343.0,,,,,,,,1,,,,,,,,,,True,True,False,False,False,False,False,False,False,False,False,0.0,1.0,0.0,0.0,1.0,2.0,"{'no': 1.0, 'ka': 2.0, 'su': 3.0, 'ti': 4.0, 'he': 5.0}",5-2,5-2,2.0,0.32025,2.5442500000000003,2,307037.0,8.0,8.0,8.0,8.0,0.25,2.6666666666666665
431,532,61e051ffaa09f84b60e4b3cd,run1,quiz,True,5.0,,,,5.0,61df8999cc7c1c6984f5f11d,61e0503a92a79e2ccaa7c81c,$1.81,181.0,61.0,7.0,7.0,5.0,ku-to,kuto,1.0,0.0,{},1642091003778.0,1642091003778.0,2211.0,2211.0,0.14,2.071,1642090626149.0,1642091005989.0,,,,,,,,1,,,,,,,,,,True,True,False,False,False,False,False,False,False,False,True,0.0,1.0,0.0,0.0,1.0,2.0,"{'ne': 1.0, 'to': 2.0, 'ha': 3.0, 'si': 4.0, 'ku': 5.0}",5-2,5-2,2.0,0.51775,0.6577500000000001,4,379840.0,10.0,16.0,16.0,16.0,0.4,2.0
434,536,61e05202aa09f84b60e4b3d5,run1,quiz,False,4.0,,,,4.0,61df8999cc7c1c6984f5f11d,61e0502c337b071611866160,$1.05,105.0,35.0,8.0,8.0,4.0,he-ko,heko,1.0,0.0,{},1642090997609.0,1642090997609.0,12105.0,12105.0,2.724,,1642090636188.0,1642091009714.0,,,,,,,,1,,,,,,,,,,True,True,False,False,False,False,False,False,False,False,True,0.0,0.0,1.0,0.0,1.0,3.0,"{'nu': 1.0, 'he': 2.0, 'sa': 3.0, 'ko': 4.0}",2-4,2-4,2.0,,,0,373526.0,,9.0,9.0,9.0,,
454,559,61e0520eaa09f84b60e4b3f7,run1,quiz,True,5.0,,,,5.0,61df8999cc7c1c6984f5f11d,61e0503a92a79e2ccaa7c81c,$1.9,190.0,64.0,0.0,10.0,5.0,to-ku,toku,1.0,0.0,{},1642091016537.0,1642091016537.0,4365.0,4365.0,3.592,0.773,1642090626149.0,1642091020902.0,,,,,,,,1,,,,,,,,,,True,True,False,False,False,False,False,False,False,False,True,0.0,0.0,1.0,0.0,1.0,3.0,"{'ne': 1.0, 'to': 2.0, 'ha': 3.0, 'si': 4.0, 'ku': 5.0}",2-5,2-5,2.0,0.19325,3.78525,1,394753.0,10.0,18.0,18.0,18.0,0.1,5.0
492,602,61e05224aa09f84b60e4b440,run1,quiz,False,7.0,,,,7.0,61df8999cc7c1c6984f5f11d,61e05034d9819c68472fe83d,$1.48,148.0,51.0,7.0,7.0,5.0,he-ka,heka,1.0,0.0,{},1642091041437.0,1642091041437.0,3666.0,3666.0,2.323,1.343,1642090690306.0,1642091045103.0,,,,,,,,1,,,,,,,,,,True,True,False,False,False,False,False,False,False,False,False,0.0,1.0,0.0,0.0,1.0,2.0,"{'no': 1.0, 'ka': 2.0, 'su': 3.0, 'ti': 4.0, 'he': 5.0}",5-2,5-2,2.0,0.33575,2.65875,3,354797.0,9.0,12.0,12.0,12.0,0.3333333333333333,2.25
495,606,61e05226aa09f84b60e4b445,run1,quiz,False,6.0,,,,6.0,61df8999cc7c1c6984f5f11d,61e0502413f7285ab3af7ba5,$1.52,152.0,51.0,7.0,7.0,5.0,ta-ne,tane,1.0,0.0,{},1642091041511.0,1642091041511.0,5055.0,5055.0,1.694,3.361,1642090662014.0,1642091046566.0,,,,,,,,1,,,,,,,,,,True,True,False,False,False,False,False,False,False,False,True,0.0,1.0,0.0,0.0,1.0,2.0,"{'ho': 1.0, 'ne': 2.0, 'ki': 3.0, 'su': 4.0, 'ta': 5.0}",5-2,5-2,2.0,0.84025,2.53425,3,384552.0,9.0,12.0,12.0,12.0,0.3333333333333333,2.25
496,607,61e05227aa09f84b60e4b448,run1,quiz,False,8.0,,,,8.0,61df8999cc7c1c6984f5f11d,61e0503662209e1bd2040d38,$0.97,97.0,33.0,6.0,6.0,4.0,tu-ke,tuke,1.0,0.0,{},1642091041540.0,1642091041540.0,3152.0,3152.0,1.597,1.555,1642090807617.0,1642091044692.0,,,,,,,,1,,,,,,,,,,True,True,False,False,False,False,False,False,False,False,True,0.0,1.0,0.0,0.0,1.0,2.0,"{'sa': 1.0, 'ke': 2.0, 'ho': 3.0, 'tu': 4.0}",4-2,4-2,2.0,0.38875,1.98575,2,237075.0,7.0,8.0,8.0,8.0,0.2857142857142857,2.3333333333333335
501,614,61e0522daa09f84b60e4b454,run1,quiz,False,4.0,,,,4.0,61df8999cc7c1c6984f5f11d,61e0502c337b071611866160,$1.23,123.0,41.0,6.0,6.0,4.0,ko-he,kohe,1.0,0.0,{},1642091046299.0,1642091046299.0,5903.0,5903.0,2.012,3.891,1642090636188.0,1642091052202.0,,,,,,,,1,,,,,,,,,,True,True,False,False,False,False,False,False,False,False,True,0.0,1.0,0.0,0.0,1.0,2.0,"{'nu': 1.0, 'he': 2.0, 'sa': 3.0, 'ko': 4.0}",4-2,4-2,2.0,0.97275,2.98475,3,416014.0,8.0,11.0,11.0,11.0,0.375,2.0
510,623,61e05233aa09f84b60e4b462,run1,quiz,False,9.0,,,,9.0,61df8999cc7c1c6984f5f11d,61e05036b57db4e8d696b04c,$0.8,80.0,27.0,7.0,7.0,5.0,ha-si,hasi,1.0,0.0,{},1642091048501.0,1642091048501.0,10786.0,10786.0,1.701,,1642090828817.0,1642091059287.0,,,,,,,,1,,,,,,,,,,True,True,False,False,False,False,False,False,False,False,False,0.0,1.0,0.0,0.0,1.0,2.0,"{'te': 1.0, 'si': 2.0, 'ko': 3.0, 'nu': 4.0, 'ha': 5.0}",5-2,5-2,2.0,,,0,230470.0,,3.0,3.0,3.0,,
514,630,61e05238aa09f84b60e4b46d,run1,quiz,False,7.0,,,,7.0,61df8999cc7c1c6984f5f11d,61e05034d9819c68472fe83d,$1.57,157.0,54.0,0.0,10.0,5.0,ka-he,kahe,1.0,0.0,{},1642091062013.0,1642091062013.0,2426.0,2426.0,0.918,1.508,1642090690306.0,1642091064439.0,,,,,,,,1,,,,,,,,,,True,True,False,False,False,False,False,False,False,False,False,0.0,0.0,1.0,0.0,1.0,3.0,"{'no': 1.0, 'ka': 2.0, 'su': 3.0, 'ti': 4.0, 'he': 5.0}",2-5,2-5,2.0,0.377,1.295,0,374133.0,,14.0,14.0,14.0,,
515,631,61e05239aa09f84b60e4b46f,run1,quiz,False,4.0,,,,4.0,61df8999cc7c1c6984f5f11d,61e0502c337b071611866160,$1.29,129.0,43.0,8.0,8.0,4.0,he-ko,heko,1.0,0.0,{},1642091059359.0,1642091059359.0,5147.0,5147.0,2.258,2.889,1642090636188.0,1642091064506.0,,,,,,,,1,,,,,,,,,,True,True,False,False,False,False,False,False,False,False,True,0.0,0.0,1.0,0.0,1.0,3.0,"{'nu': 1.0, 'he': 2.0, 'sa': 3.0, 'ko': 4.0}",2-4,2-4,2.0,0.72225,2.98025,1,428318.0,8.0,12.0,12.0,12.0,0.125,4.0
539,659,61e0524baa09f84b60e4b4a3,run1,quiz,False,6.0,,,,6.0,61df8999cc7c1c6984f5f11d,61e0502413f7285ab3af7ba5,$1.61,161.0,54.0,0.0,10.0,5.0,ne-ta,neta,1.0,0.0,{},1642091078574.0,1642091078574.0,4590.0,4590.0,0.952,3.638,1642090662014.0,1642091083164.0,,,,,,,,1,,,,,,,,,,True,True,False,False,False,False,False,False,False,False,True,0.0,0.0,1.0,0.0,1.0,3.0,"{'ho': 1.0, 'ne': 2.0, 'ki': 3.0, 'su': 4.0, 'ta': 5.0}",2-5,2-5,2.0,0.9095,1.8615,0,421150.0,,14.0,14.0,14.0,,
556,678,61e0525aaa09f84b60e4b4c7,run1,quiz,True,7.0,,,,7.0,61df8999cc7c1c6984f5f11d,61e05034d9819c68472fe83d,$1.78,178.0,61.0,7.0,7.0,5.0,he-ka,heka,1.0,0.0,{},1642091094050.0,1642091094050.0,4392.0,4392.0,3.071,1.321,1642090690306.0,1642091098442.0,,,,,,,,1,,,,,,,,,,True,True,False,False,False,False,False,False,False,False,False,0.0,1.0,0.0,0.0,1.0,2.0,"{'no': 1.0, 'ka': 2.0, 'su': 3.0, 'ti': 4.0, 'he': 5.0}",5-2,5-2,2.0,0.33025,3.40125,4,408136.0,10.0,16.0,16.0,16.0,0.4,2.0
572,696,61e05265aa09f84b60e4b4e6,run1,quiz,False,9.0,,,,9.0,61df8999cc7c1c6984f5f11d,61e05036b57db4e8d696b04c,$1.01,101.0,34.0,7.0,7.0,5.0,ha-si,hasi,1.0,0.0,{},1642091100154.0,1642091100154.0,9333.0,9333.0,2.506,,1642090828817.0,1642091109487.0,,,,,,,,1,,,,,,,,,,True,True,False,False,False,False,False,False,False,False,False,0.0,1.0,0.0,0.0,1.0,2.0,"{'te': 1.0, 'si': 2.0, 'ko': 3.0, 'nu': 4.0, 'ha': 5.0}",5-2,5-2,2.0,,,1,280670.0,7.0,5.0,5.0,5.0,0.14285714285714285,3.5
582,709,61e05272aa09f84b60e4b4fd,run1,quiz,True,6.0,,,,6.0,61df8999cc7c1c6984f5f11d,61e0502413f7285ab3af7ba5,$1.82,182.0,61.0,7.0,7.0,5.0,ta-ne,tane,1.0,0.0,{},1642091118116.0,1642091118116.0,4420.0,4420.0,2.002,2.418,1642090662014.0,1642091122536.0,,,,,,,,1,,,,,,,,,,True,True,False,False,False,False,False,False,False,False,True,0.0,1.0,0.0,0.0,1.0,2.0,"{'ho': 1.0, 'ne': 2.0, 'ki': 3.0, 'su': 4.0, 'ta': 5.0}",5-2,5-2,2.0,0.6045,2.6065,4,460522.0,10.0,16.0,16.0,16.0,0.4,2.0
584,712,61e05273aa09f84b60e4b501,run1,quiz,True,7.0,,,,7.0,61df8999cc7c1c6984f5f11d,61e05034d9819c68472fe83d,$1.84,184.0,64.0,10.0,10.0,5.0,ka-he,hehe,0.0,0.0,{},1642091108905.0,1642091108905.0,15391.0,15391.0,13.746,1.645,1642090690306.0,1642091124296.0,,,,,,,,1,,,,,,,,,,True,True,False,False,False,False,False,False,False,False,False,0.0,0.0,1.0,0.0,1.0,3.0,"{'no': 1.0, 'ka': 2.0, 'su': 3.0, 'ti': 4.0, 'he': 5.0}",5-5,2-5,2.0,0.41125,14.15725,1,433990.0,10.0,18.0,18.0,18.0,0.1,5.0
608,740,61e05286aa09f84b60e4b52a,run1,quiz,True,6.0,,,,6.0,61df8999cc7c1c6984f5f11d,61e0502413f7285ab3af7ba5,$1.91,191.0,64.0,0.0,10.0,5.0,ne-ta,neta,1.0,0.0,{},1642091137096.0,1642091137096.0,5388.0,5388.0,2.013,3.375,1642090662014.0,1642091142484.0,,,,,,,,1,,,,,,,,,,True,True,False,False,False,False,False,False,False,False,True,0.0,0.0,1.0,0.0,1.0,3.0,"{'ho': 1.0, 'ne': 2.0, 'ki': 3.0, 'su': 4.0, 'ta': 5.0}",2-5,2-5,2.0,0.84375,2.85675,1,480470.0,10.0,18.0,18.0,18.0,0.1,5.0
611,743,61e05289aa09f84b60e4b52d,run1,quiz,False,4.0,,,,4.0,61df8999cc7c1c6984f5f11d,61e0502c337b071611866160,$1.5,150.0,50.0,6.0,6.0,4.0,ko-he,kohe,1.0,0.0,{},1642091137702.0,1642091137702.0,6187.0,6187.0,2.397,3.79,1642090636188.0,1642091143889.0,,,,,,,,1,,,,,,,,,,True,True,False,False,False,False,False,False,False,False,True,0.0,1.0,0.0,0.0,1.0,2.0,"{'nu': 1.0, 'he': 2.0, 'sa': 3.0, 'ko': 4.0}",4-2,4-2,2.0,0.9475,3.3445,4,507701.0,9.0,15.0,15.0,15.0,0.4444444444444444,1.8
624,757,61e05294aa09f84b60e4b543,run1,quiz,False,9.0,,,,9.0,61df8999cc7c1c6984f5f11d,61e05036b57db4e8d696b04c,$1.25,125.0,42.0,7.0,7.0,5.0,ha-si,hasi,1.0,0.0,{},1642091153044.0,1642091153044.0,3078.0,3078.0,1.406,1.672,1642090828817.0,1642091156122.0,,,,,,,,1,,,,,,,,,,True,True,False,False,False,False,False,False,False,False,False,0.0,1.0,0.0,0.0,1.0,2.0,"{'te': 1.0, 'si': 2.0, 'ko': 3.0, 'nu': 4.0, 'ha': 5.0}",5-2,5-2,2.0,0.418,1.824,2,327305.0,8.0,8.0,8.0,8.0,0.25,2.6666666666666665
630,764,61e0529caa09f84b60e4b54f,run1,quiz,False,4.0,,,,4.0,61df8999cc7c1c6984f5f11d,61e0502c337b071611866160,$1.56,156.0,52.0,8.0,8.0,4.0,he-ko,heko,1.0,0.0,{},1642091151956.0,1642091151956.0,11241.0,11241.0,7.273,3.968,1642090636188.0,1642091163197.0,,,,,,,,1,,,,,,,,,,True,True,False,False,False,False,False,False,False,False,True,0.0,0.0,1.0,0.0,1.0,3.0,"{'nu': 1.0, 'he': 2.0, 'sa': 3.0, 'ko': 4.0}",2-4,2-4,2.0,0.992,8.265,2,527009.0,9.0,16.0,16.0,16.0,0.2222222222222222,3.0
636,773,61e052a3aa09f84b60e4b55c,run1,quiz,False,8.0,,,,8.0,61df8999cc7c1c6984f5f11d,61e0503662209e1bd2040d38,$1.03,103.0,35.0,8.0,8.0,4.0,ke-tu,ketu,1.0,0.0,{},1642091166480.0,1642091166480.0,2334.0,2334.0,0.674,1.66,1642090807617.0,1642091168814.0,,,,,,,,1,,,,,,,,,,True,True,False,False,False,False,False,False,False,False,True,0.0,0.0,1.0,0.0,1.0,3.0,"{'sa': 1.0, 'ke': 2.0, 'ho': 3.0, 'tu': 4.0}",2-4,2-4,2.0,0.415,1.089,0,361197.0,,9.0,9.0,9.0,,
659,797,61e052b8aa09f84b60e4b582,run1,quiz,False,8.0,,,,8.0,61df8999cc7c1c6984f5f11d,61e0503662209e1bd2040d38,$1.21,121.0,41.0,6.0,6.0,4.0,tu-ke,tuke,1.0,0.0,{},1642091186950.0,1642091186950.0,2441.0,2441.0,1.384,1.057,1642090807617.0,1642091189391.0,,,,,,,,1,,,,,,,,,,True,True,False,False,False,False,False,False,False,False,True,0.0,1.0,0.0,0.0,1.0,2.0,"{'sa': 1.0, 'ke': 2.0, 'ho': 3.0, 'tu': 4.0}",4-2,4-2,2.0,0.26425,1.64825,3,381774.0,8.0,11.0,11.0,11.0,0.375,2.0
667,806,61e052c1aa09f84b60e4b593,run1,quiz,False,8.0,,,,8.0,61df8999cc7c1c6984f5f11d,61e0503662209e1bd2040d38,$1.27,127.0,43.0,8.0,8.0,4.0,ke-tu,ketu,1.0,0.0,{},1642091194575.0,1642091194575.0,3740.0,3740.0,2.385,1.355,1642090807617.0,1642091198315.0,,,,,,,,1,,,,,,,,,,True,True,False,False,False,False,False,False,False,False,True,0.0,0.0,1.0,0.0,1.0,3.0,"{'sa': 1.0, 'ke': 2.0, 'ho': 3.0, 'tu': 4.0}",2-4,2-4,2.0,0.33875,2.72375,1,390698.0,8.0,12.0,12.0,12.0,0.125,4.0
673,814,61e052cdaa09f84b60e4b5a3,run1,quiz,False,9.0,,,,9.0,61df8999cc7c1c6984f5f11d,61e05036b57db4e8d696b04c,$1.52,152.0,51.0,7.0,7.0,5.0,ha-si,hasi,1.0,0.0,{},1642091206171.0,1642091206171.0,6957.0,6957.0,2.426,4.531,1642090828817.0,1642091213128.0,,,,,,,,1,,,,,,,,,,True,True,False,False,False,False,False,False,False,False,False,0.0,1.0,0.0,0.0,1.0,2.0,"{'te': 1.0, 'si': 2.0, 'ko': 3.0, 'nu': 4.0, 'ha': 5.0}",5-2,5-2,2.0,1.13275,3.55875,3,384311.0,9.0,12.0,12.0,12.0,0.3333333333333333,2.25
695,839,61e052e3aa09f84b60e4b5ca,run1,quiz,False,9.0,,,,9.0,61df8999cc7c1c6984f5f11d,61e05036b57db4e8d696b04c,$1.61,161.0,54.0,0.0,10.0,5.0,si-ha,siha,1.0,0.0,{},1642091231169.0,1642091231169.0,4187.0,4187.0,2.662,1.525,1642090828817.0,1642091235356.0,,,,,,,,1,,,,,,,,,,True,True,False,False,False,False,False,False,False,False,False,0.0,0.0,1.0,0.0,1.0,3.0,"{'te': 1.0, 'si': 2.0, 'ko': 3.0, 'nu': 4.0, 'ha': 5.0}",2-5,2-5,2.0,0.38125,3.04325,0,406539.0,,14.0,14.0,14.0,,
697,842,61e052e5aa09f84b60e4b5cd,run1,quiz,False,8.0,,,,8.0,61df8999cc7c1c6984f5f11d,61e0503662209e1bd2040d38,$1.47,147.0,50.0,6.0,6.0,4.0,tu-ke,tuke,1.0,0.0,{},1642091231137.0,1642091231137.0,3256.0,3256.0,2.231,1.025,1642090807617.0,1642091234393.0,,,,,,,,1,,,,,,,,,,True,True,False,False,False,False,False,False,False,False,True,0.0,1.0,0.0,0.0,1.0,2.0,"{'sa': 1.0, 'ke': 2.0, 'ho': 3.0, 'tu': 4.0}",4-2,4-2,2.0,0.25625,2.48725,4,426776.0,9.0,15.0,15.0,15.0,0.4444444444444444,1.8
705,852,61e052f0aa09f84b60e4b5df,run1,quiz,False,8.0,,,,8.0,61df8999cc7c1c6984f5f11d,61e0503662209e1bd2040d38,$1.53,153.0,52.0,8.0,8.0,4.0,ke-tu,ketu,1.0,0.0,{},1642091242257.0,1642091242257.0,3285.0,3285.0,1.882,1.403,1642090807617.0,1642091245542.0,,,,,,,,1,,,,,,,,,,True,True,False,False,False,False,False,False,False,False,True,0.0,0.0,1.0,0.0,1.0,3.0,"{'sa': 1.0, 'ke': 2.0, 'ho': 3.0, 'tu': 4.0}",2-4,2-4,2.0,0.35075,2.23275,2,437925.0,9.0,16.0,16.0,16.0,0.2222222222222222,3.0
710,859,61e052f6aa09f84b60e4b5e9,run1,quiz,True,4.0,,,,4.0,61df8999cc7c1c6984f5f11d,61e0502c337b071611866160,$1.79,179.0,60.0,6.0,6.0,4.0,ko-he,kohe,1.0,0.0,{},1642091244997.0,1642091244997.0,8348.0,8348.0,4.826,3.522,1642090636188.0,1642091253345.0,,,,,,,,1,,,,,,,,,,True,True,False,False,False,False,False,False,False,False,True,0.0,1.0,0.0,0.0,1.0,2.0,"{'nu': 1.0, 'he': 2.0, 'sa': 3.0, 'ko': 4.0}",4-2,4-2,2.0,0.8805,5.706499999999999,5,617157.0,10.0,20.0,20.0,20.0,0.5,1.6666666666666667
723,874,61e05308aa09f84b60e4b5ff,run1,quiz,True,4.0,,,,4.0,61df8999cc7c1c6984f5f11d,61e0502c337b071611866160,$1.85,185.0,62.0,8.0,8.0,4.0,he-ko,heko,1.0,0.0,{},1642091264518.0,1642091264518.0,6834.0,6834.0,3.674,3.16,1642090636188.0,1642091271352.0,,,,,,,,1,,,,,,,,,,True,True,False,False,False,False,False,False,False,False,True,0.0,0.0,1.0,0.0,1.0,3.0,"{'nu': 1.0, 'he': 2.0, 'sa': 3.0, 'ko': 4.0}",2-4,2-4,2.0,0.79,4.464,3,635164.0,10.0,21.0,21.0,21.0,0.3,2.5
738,890,61e05321aa09f84b60e4b61c,run1,quiz,True,8.0,,,,8.0,61df8999cc7c1c6984f5f11d,61e0503662209e1bd2040d38,$1.74,174.0,60.0,6.0,6.0,4.0,tu-ke,ketu,0.0,0.0,{},1642091276955.0,1642091276955.0,17977.0,17977.0,16.677,1.3,1642090807617.0,1642091294932.0,,,,,,,,1,,,,,,,,,,True,True,False,False,False,False,False,False,False,False,True,0.0,1.0,0.0,0.0,1.0,2.0,"{'sa': 1.0, 'ke': 2.0, 'ho': 3.0, 'tu': 4.0}",2-4,4-2,2.0,0.325,17.002,5,487315.0,10.0,20.0,20.0,20.0,0.5,1.6666666666666667
741,893,61e05328aa09f84b60e4b622,run1,quiz,True,9.0,,,,9.0,61df8999cc7c1c6984f5f11d,61e05036b57db4e8d696b04c,$1.81,181.0,61.0,7.0,7.0,5.0,ha-si,hasi,1.0,0.0,{},1642091300182.0,1642091300182.0,3645.0,3645.0,2.38,1.265,1642090828817.0,1642091303827.0,,,,,,,,1,,,,,,,,,,True,True,False,False,False,False,False,False,False,False,False,0.0,1.0,0.0,0.0,1.0,2.0,"{'te': 1.0, 'si': 2.0, 'ko': 3.0, 'nu': 4.0, 'ha': 5.0}",5-2,5-2,2.0,0.31625,2.69625,4,475010.0,10.0,16.0,16.0,16.0,0.4,2.0
751,905,61e0533aaa09f84b60e4b637,run1,quiz,True,9.0,,,,9.0,61df8999cc7c1c6984f5f11d,61e05036b57db4e8d696b04c,$1.87,187.0,64.0,10.0,10.0,5.0,si-ha,Siha,0.0,0.0,{},1642091316025.0,1642091316025.0,6332.0,6332.0,1.76,4.572,1642090828817.0,1642091322357.0,,,,,,,,1,,,,,,,,,,True,True,False,False,False,False,False,False,False,False,False,0.0,0.0,1.0,0.0,1.0,3.0,"{'te': 1.0, 'si': 2.0, 'ko': 3.0, 'nu': 4.0, 'ha': 5.0}",Si-5,2-5,2.0,1.143,2.903,1,493540.0,10.0,18.0,18.0,18.0,0.1,5.0
754,908,61e05341aa09f84b60e4b63d,run1,quiz,True,8.0,,,,8.0,61df8999cc7c1c6984f5f11d,61e0503662209e1bd2040d38,$1.82,182.0,62.0,8.0,8.0,4.0,ke-tu,ketu,1.0,0.0,{},1642091322481.0,1642091322481.0,4280.0,4280.0,2.809,1.471,1642090807617.0,1642091326761.0,,,,,,,,1,,,,,,,,,,True,True,False,False,False,False,False,False,False,False,True,0.0,0.0,1.0,0.0,1.0,3.0,"{'sa': 1.0, 'ke': 2.0, 'ho': 3.0, 'tu': 4.0}",2-4,2-4,2.0,0.36775,3.17675,3,519144.0,10.0,21.0,21.0,21.0,0.3,2.5
787,957,61e056b9aa09f84b60e4b829,run1,quiz,False,13.0,,,,13.0,61df8999cc7c1c6984f5f11d,61e0547e264eec745690138c,$0.59,59.0,20.0,6.0,6.0,4.0,ki-se,kise,1.0,0.0,{},1642092209729.0,1642092209729.0,7509.0,7509.0,5.828,1.681,1642091920745.0,1642092217238.0,,,,,,,,1,,,,,,,,,,True,True,False,False,False,False,False,False,False,False,True,0.0,1.0,0.0,0.0,1.0,2.0,"{'ho': 1.0, 'se': 2.0, 'na': 3.0, 'ki': 4.0}",4-2,4-2,2.0,0.42025,6.2482500000000005,0,296493.0,,3.0,3.0,3.0,,
793,965,61e056e1aa09f84b60e4b838,run1,quiz,False,13.0,,,,13.0,61df8999cc7c1c6984f5f11d,61e0547e264eec745690138c,$0.75,75.0,26.0,6.0,6.0,4.0,ki-se,kise,1.0,0.0,{},1642092253756.0,1642092253756.0,3690.0,3690.0,2.464,1.226,1642091920745.0,1642092257446.0,,,,,,,,1,,,,,,,,,,True,True,False,False,False,False,False,False,False,False,True,0.0,1.0,0.0,0.0,1.0,2.0,"{'ho': 1.0, 'se': 2.0, 'na': 3.0, 'ki': 4.0}",4-2,4-2,2.0,0.3065,2.7705,1,336701.0,6.0,5.0,5.0,5.0,0.16666666666666666,3.0
800,973,61e0570caa09f84b60e4b845,run1,quiz,False,13.0,,,,13.0,61df8999cc7c1c6984f5f11d,61e0547e264eec745690138c,$0.96,96.0,33.0,6.0,6.0,4.0,ki-se,kise,1.0,0.0,{},1642092294053.0,1642092294053.0,6762.0,6762.0,3.817,2.945,1642091920745.0,1642092300815.0,,,,,,,,1,,,,,,,,,,True,True,False,False,False,False,False,False,False,False,True,0.0,1.0,0.0,0.0,1.0,2.0,"{'ho': 1.0, 'se': 2.0, 'na': 3.0, 'ki': 4.0}",4-2,4-2,2.0,0.73625,4.55325,2,380070.0,7.0,8.0,8.0,8.0,0.2857142857142857,2.3333333333333335
802,976,61e05720aa09f84b60e4b84a,run1,quiz,False,13.0,,,,13.0,61df8999cc7c1c6984f5f11d,61e0547e264eec745690138c,$1.02,102.0,35.0,8.0,8.0,4.0,se-ki,seki,1.0,0.0,{},1642092316253.0,1642092316253.0,4322.0,4322.0,3.025,1.297,1642091920745.0,1642092320575.0,,,,,,,,1,,,,,,,,,,True,True,False,False,False,False,False,False,False,False,True,0.0,0.0,1.0,0.0,1.0,3.0,"{'ho': 1.0, 'se': 2.0, 'na': 3.0, 'ki': 4.0}",2-4,2-4,2.0,0.32425,3.34925,0,399830.0,,9.0,9.0,9.0,,
808,982,61e0573baa09f84b60e4b856,run1,quiz,False,13.0,,,,13.0,61df8999cc7c1c6984f5f11d,61e0547e264eec745690138c,$1.17,117.0,41.0,6.0,6.0,4.0,ki-se,kina,0.0,0.0,{},1642092339910.0,1642092339910.0,7282.0,7282.0,4.049,3.233,1642091920745.0,1642092347192.0,,,,,,,,1,,,,,,,,,,True,True,False,False,False,False,False,False,False,False,True,0.0,1.0,0.0,0.0,1.0,2.0,"{'ho': 1.0, 'se': 2.0, 'na': 3.0, 'ki': 4.0}",4-3,4-2,2.0,0.80825,4.8572500000000005,3,426447.0,8.0,11.0,11.0,11.0,0.375,2.0
810,986,61e0574faa09f84b60e4b85c,run1,quiz,False,13.0,,,,13.0,61df8999cc7c1c6984f5f11d,61e0547e264eec745690138c,$1.24,124.0,43.0,8.0,8.0,4.0,se-ki,seki,1.0,0.0,{},1642092364220.0,1642092364220.0,3716.0,3716.0,2.522,1.194,1642091920745.0,1642092367936.0,,,,,,,,1,,,,,,,,,,True,True,False,False,False,False,False,False,False,False,True,0.0,0.0,1.0,0.0,1.0,3.0,"{'ho': 1.0, 'se': 2.0, 'na': 3.0, 'ki': 4.0}",2-4,2-4,2.0,0.2985,2.8205,1,447191.0,8.0,12.0,12.0,12.0,0.125,4.0
817,994,61e05778aa09f84b60e4b86b,run1,quiz,False,13.0,,,,13.0,61df8999cc7c1c6984f5f11d,61e0547e264eec745690138c,$1.45,145.0,50.0,6.0,6.0,4.0,ki-se,kise,1.0,0.0,{},1642092406813.0,1642092406813.0,1883.0,1883.0,0.753,1.13,1642091920745.0,1642092408696.0,,,,,,,,1,,,,,,,,,,True,True,False,False,False,False,False,False,False,False,True,0.0,1.0,0.0,0.0,1.0,2.0,"{'ho': 1.0, 'se': 2.0, 'na': 3.0, 'ki': 4.0}",4-2,4-2,2.0,0.2825,1.0355,4,487951.0,9.0,15.0,15.0,15.0,0.4444444444444444,1.8
819,996,61e05780aa09f84b60e4b86f,run1,quiz,False,13.0,,,,13.0,61df8999cc7c1c6984f5f11d,61e0547e264eec745690138c,$1.51,151.0,52.0,8.0,8.0,4.0,se-ki,seki,1.0,0.0,{},1642092414031.0,1642092414031.0,2377.0,2377.0,1.152,1.225,1642091920745.0,1642092416408.0,,,,,,,,1,,,,,,,,,,True,True,False,False,False,False,False,False,False,False,True,0.0,0.0,1.0,0.0,1.0,3.0,"{'ho': 1.0, 'se': 2.0, 'na': 3.0, 'ki': 4.0}",2-4,2-4,2.0,0.30625,1.45825,2,495663.0,9.0,16.0,16.0,16.0,0.2222222222222222,3.0
827,1006,61e057b3aa09f84b60e4b881,run1,quiz,True,13.0,,,,13.0,61df8999cc7c1c6984f5f11d,61e0547e264eec745690138c,$1.74,174.0,60.0,6.0,6.0,4.0,ki-se,kise,1.0,0.0,{},1642092464477.0,1642092464477.0,2819.0,2819.0,1.378,1.441,1642091920745.0,1642092467296.0,,,,,,,,1,,,,,,,,,,True,True,False,False,False,False,False,False,False,False,True,0.0,1.0,0.0,0.0,1.0,2.0,"{'ho': 1.0, 'se': 2.0, 'na': 3.0, 'ki': 4.0}",4-2,4-2,2.0,0.36025,1.73825,5,546551.0,10.0,20.0,20.0,20.0,0.5,1.6666666666666667
829,1008,61e057beaa09f84b60e4b885,run1,quiz,True,13.0,,,,13.0,61df8999cc7c1c6984f5f11d,61e0547e264eec745690138c,$1.8,180.0,62.0,8.0,8.0,4.0,se-ki,seki,1.0,0.0,{},1642092473276.0,1642092473276.0,5020.0,5020.0,2.843,2.177,1642091920745.0,1642092478296.0,,,,,,,,1,,,,,,,,,,True,True,False,False,False,False,False,False,False,False,True,0.0,0.0,1.0,0.0,1.0,3.0,"{'ho': 1.0, 'se': 2.0, 'na': 3.0, 'ki': 4.0}",2-4,2-4,2.0,0.54425,3.38725,3,557551.0,10.0,21.0,21.0,21.0,0.3,2.5
859,1049,620c1a59abf9934721172294,run1,quiz,False,14.0,,,,14.0,61df8999cc7c1c6984f5f11d,620c190bc5290c920d43ea61,$0.6,60.0,20.0,6.0,6.0,4.0,no-he,nohe,1.0,0.0,{},1644960341980.0,1644960341980.0,2876.0,2876.0,1.077,1.799,1644960250025.0,1644960344856.0,,,,,,,,1,,,,,,,,,,True,True,False,False,False,False,False,False,False,False,True,0.0,1.0,0.0,0.0,1.0,2.0,"{'si': 1.0, 'he': 2.0, 'tu': 3.0, 'no': 4.0}",4-2,4-2,2.0,0.44975,1.5267499999999998,0,94831.0,,3.0,3.0,3.0,,
868,1059,620c1a70abf99347211722a3,run1,quiz,False,14.0,,,,14.0,61df8999cc7c1c6984f5f11d,620c190bc5290c920d43ea61,$0.78,78.0,26.0,6.0,6.0,4.0,no-he,nohe,1.0,0.0,{},1644960364144.0,1644960364144.0,3460.0,3460.0,0.886,2.574,1644960250025.0,1644960367604.0,,,,,,,,1,,,,,,,,,,True,True,False,False,False,False,False,False,False,False,True,0.0,1.0,0.0,0.0,1.0,2.0,"{'si': 1.0, 'he': 2.0, 'tu': 3.0, 'no': 4.0}",4-2,4-2,2.0,0.6435,1.5295,1,117579.0,6.0,5.0,5.0,5.0,0.16666666666666666,3.0
877,1069,620c1a8cabf99347211722b2,run1,quiz,False,14.0,,,,14.0,61df8999cc7c1c6984f5f11d,620c190bc5290c920d43ea61,$0.99,99.0,33.0,6.0,6.0,4.0,no-he,nohe,1.0,0.0,{},1644960393628.0,1644960393628.0,2152.0,2152.0,0.787,1.365,1644960250025.0,1644960395780.0,,,,,,,,1,,,,,,,,,,True,True,False,False,False,False,False,False,False,False,True,0.0,1.0,0.0,0.0,1.0,2.0,"{'si': 1.0, 'he': 2.0, 'tu': 3.0, 'no': 4.0}",4-2,4-2,2.0,0.34125,1.12825,2,145755.0,7.0,8.0,8.0,8.0,0.2857142857142857,2.3333333333333335
880,1074,620c1a97abf99347211722b9,run1,quiz,False,14.0,,,,14.0,61df8999cc7c1c6984f5f11d,620c190bc5290c920d43ea61,$1.05,105.0,35.0,8.0,8.0,4.0,he-no,heno,1.0,0.0,{},1644960404102.0,1644960404102.0,2050.0,2050.0,0.722,1.328,1644960250025.0,1644960406152.0,,,,,,,,1,,,,,,,,,,True,True,False,False,False,False,False,False,False,False,True,0.0,0.0,1.0,0.0,1.0,3.0,"{'si': 1.0, 'he': 2.0, 'tu': 3.0, 'no': 4.0}",2-4,2-4,2.0,0.332,1.054,0,156127.0,,9.0,9.0,9.0,,
891,1085,620c1aababf99347211722c9,run1,quiz,False,14.0,,,,14.0,61df8999cc7c1c6984f5f11d,620c190bc5290c920d43ea61,$1.23,123.0,41.0,6.0,6.0,4.0,no-he,nohe,1.0,0.0,{},1644960422623.0,1644960422623.0,3873.0,3873.0,0.556,3.317,1644960250025.0,1644960426496.0,,,,,,,,1,,,,,,,,,,True,True,False,False,False,False,False,False,False,False,True,0.0,1.0,0.0,0.0,1.0,2.0,"{'si': 1.0, 'he': 2.0, 'tu': 3.0, 'no': 4.0}",4-2,4-2,2.0,0.82925,1.38525,3,176471.0,8.0,11.0,11.0,11.0,0.375,2.0
893,1088,620c1ab1abf99347211722cd,run1,quiz,False,14.0,,,,14.0,61df8999cc7c1c6984f5f11d,620c190bc5290c920d43ea61,$1.29,129.0,43.0,8.0,8.0,4.0,he-no,heno,1.0,0.0,{},1644960430626.0,1644960430626.0,2291.0,2291.0,0.544,1.747,1644960250025.0,1644960432917.0,,,,,,,,1,,,,,,,,,,True,True,False,False,False,False,False,False,False,False,True,0.0,0.0,1.0,0.0,1.0,3.0,"{'si': 1.0, 'he': 2.0, 'tu': 3.0, 'no': 4.0}",2-4,2-4,2.0,0.43675,0.98075,1,182892.0,8.0,12.0,12.0,12.0,0.125,4.0
908,1107,620c1acfabf99347211722e4,run1,quiz,False,14.0,,,,14.0,61df8999cc7c1c6984f5f11d,620c190bc5290c920d43ea61,$1.5,150.0,50.0,6.0,6.0,4.0,no-he,nohe,1.0,0.0,{},1644960460183.0,1644960460183.0,2675.0,2675.0,0.766,1.909,1644960250025.0,1644960462858.0,,,,,,,,1,,,,,,,,,,True,True,False,False,False,False,False,False,False,False,True,0.0,1.0,0.0,0.0,1.0,2.0,"{'si': 1.0, 'he': 2.0, 'tu': 3.0, 'no': 4.0}",4-2,4-2,2.0,0.47725,1.24325,4,212833.0,9.0,15.0,15.0,15.0,0.4444444444444444,1.8
912,1112,620c1ad8abf99347211722e9,run1,quiz,False,14.0,,,,14.0,61df8999cc7c1c6984f5f11d,620c190bc5290c920d43ea61,$1.56,156.0,52.0,8.0,8.0,4.0,he-no,heno,1.0,0.0,{},1644960466694.0,1644960466694.0,4714.0,4714.0,3.391,1.323,1644960250025.0,1644960471408.0,,,,,,,,1,,,,,,,,,,True,True,False,False,False,False,False,False,False,False,True,0.0,0.0,1.0,0.0,1.0,3.0,"{'si': 1.0, 'he': 2.0, 'tu': 3.0, 'no': 4.0}",2-4,2-4,2.0,0.33075,3.72175,2,221383.0,9.0,16.0,16.0,16.0,0.2222222222222222,3.0
938,1142,620c1afeabf9934721172307,run1,quiz,True,14.0,,,,14.0,61df8999cc7c1c6984f5f11d,620c190bc5290c920d43ea61,$1.8,180.0,60.0,6.0,6.0,4.0,no-he,nohe,1.0,0.0,{},1644960506085.0,1644960506085.0,3281.0,3281.0,1.157,2.124,1644960250025.0,1644960509366.0,,,,,,,,1,,,,,,,,,,True,True,False,False,False,False,False,False,False,False,True,0.0,1.0,0.0,0.0,1.0,2.0,"{'si': 1.0, 'he': 2.0, 'tu': 3.0, 'no': 4.0}",4-2,4-2,2.0,0.531,1.6880000000000002,5,259341.0,10.0,20.0,20.0,20.0,0.5,1.6666666666666667
945,1153,620c1b0aabf9934721172313,run1,quiz,True,14.0,,,,14.0,61df8999cc7c1c6984f5f11d,620c190bc5290c920d43ea61,$1.83,183.0,62.0,8.0,8.0,4.0,he-no,nohe,0.0,0.0,{},1644960513810.0,1644960513810.0,7962.0,7962.0,2.548,5.414,1644960250025.0,1644960521772.0,,,,,,,,1,,,,,,,,,,True,True,False,False,False,False,False,False,False,False,True,0.0,0.0,1.0,0.0,1.0,3.0,"{'si': 1.0, 'he': 2.0, 'tu': 3.0, 'no': 4.0}",4-2,2-4,2.0,1.3535,3.9015,3,271747.0,10.0,21.0,21.0,21.0,0.3,2.5
1111,1350,620c1bb3abf99347211723f7,run1,quiz,False,17.0,,,,17.0,61df8999cc7c1c6984f5f11d,620c1a4e4fbad27346561f3f,$0.6,60.0,20.0,6.0,6.0,4.0,ti-he,tihe,1.0,0.0,{},1644960683927.0,1644960683927.0,7027.0,7027.0,3.334,3.693,1644960456166.0,1644960690954.0,,,,,,,,1,,,,,,,,,,True,True,False,False,False,False,False,False,False,False,True,0.0,1.0,0.0,0.0,1.0,2.0,"{'sa': 1.0, 'he': 2.0, 'nu': 3.0, 'ti': 4.0}",4-2,4-2,2.0,0.92325,4.25725,0,234788.0,,3.0,3.0,3.0,,
1142,1385,620c1bd1abf9934721172421,run1,quiz,False,19.0,,,,19.0,61df8999cc7c1c6984f5f11d,620c1a61499992ed14a40bdc,$0.81,81.0,27.0,7.0,7.0,5.0,no-hi,nohi,1.0,0.0,{},1644960713136.0,1644960713136.0,7889.0,7889.0,5.079,2.81,1644960501094.0,1644960721025.0,,,,,,,,1,,,,,,,,,,True,True,False,False,False,False,False,False,False,False,True,0.0,1.0,0.0,0.0,1.0,2.0,"{'tu': 1.0, 'hi': 2.0, 'ka': 3.0, 'se': 4.0, 'no': 5.0}",5-2,5-2,2.0,0.7025,5.781499999999999,0,219931.0,,3.0,3.0,3.0,,
1145,1389,620c1bd6abf9934721172427,run1,quiz,False,20.0,,,,20.0,61df8999cc7c1c6984f5f11d,620c1a37da7f4e2ae55104ba,$0.6,60.0,20.0,6.0,6.0,4.0,he-no,heno,1.0,0.0,{},1644960722933.0,1644960722933.0,3252.0,3252.0,1.212,2.04,1644960576637.0,1644960726185.0,,,,,,,,1,,,,,,,,,,True,True,False,False,False,False,False,False,False,False,True,0.0,1.0,0.0,0.0,1.0,2.0,"{'sa': 1.0, 'no': 2.0, 'ti': 3.0, 'he': 4.0}",4-2,4-2,2.0,0.51,1.722,0,149548.0,,3.0,3.0,3.0,,
1147,1391,620c1bd8abf993472117242a,run1,quiz,False,17.0,,,,17.0,61df8999cc7c1c6984f5f11d,620c1a4e4fbad27346561f3f,$0.78,78.0,26.0,6.0,6.0,4.0,ti-he,tihe,1.0,0.0,{},1644960720695.0,1644960720695.0,6917.0,6917.0,2.567,4.35,1644960456166.0,1644960727612.0,,,,,,,,1,,,,,,,,,,True,True,False,False,False,False,False,False,False,False,True,0.0,1.0,0.0,0.0,1.0,2.0,"{'sa': 1.0, 'he': 2.0, 'nu': 3.0, 'ti': 4.0}",4-2,4-2,2.0,1.0875,3.6545,1,271446.0,6.0,5.0,5.0,5.0,0.16666666666666666,3.0
1164,1410,620c1becabf9934721172440,run1,quiz,False,19.0,,,,19.0,61df8999cc7c1c6984f5f11d,620c1a61499992ed14a40bdc,$1.02,102.0,34.0,7.0,7.0,5.0,no-hi,nohi,1.0,0.0,{},1644960744202.0,1644960744202.0,4141.0,4141.0,1.988,2.153,1644960501094.0,1644960748343.0,,,,,,,,1,,,,,,,,,,True,True,False,False,False,False,False,False,False,False,True,0.0,1.0,0.0,0.0,1.0,2.0,"{'tu': 1.0, 'hi': 2.0, 'ka': 3.0, 'se': 4.0, 'no': 5.0}",5-2,5-2,2.0,0.53825,2.52625,1,247249.0,7.0,5.0,5.0,5.0,0.14285714285714285,3.5
1165,1411,620c1becabf9934721172441,run1,quiz,False,20.0,,,,20.0,61df8999cc7c1c6984f5f11d,620c1a37da7f4e2ae55104ba,$0.78,78.0,26.0,6.0,6.0,4.0,he-no,heno,1.0,0.0,{},1644960742645.0,1644960742645.0,6083.0,6083.0,1.452,4.631,1644960576637.0,1644960748728.0,,,,,,,,1,,,,,,,,,,True,True,False,False,False,False,False,False,False,False,True,0.0,1.0,0.0,0.0,1.0,2.0,"{'sa': 1.0, 'no': 2.0, 'ti': 3.0, 'he': 4.0}",4-2,4-2,2.0,1.15775,2.60975,1,172091.0,6.0,5.0,5.0,5.0,0.16666666666666666,3.0
1195,1445,620c1c0cabf993472117246c,run1,quiz,False,21.0,,,,21.0,61df8999cc7c1c6984f5f11d,620c19b64c6867defd6994b5,$0.6,60.0,20.0,6.0,6.0,4.0,ku-to,kuto,1.0,0.0,{},1644960773049.0,1644960773049.0,3087.0,3087.0,1.355,1.732,1644960584096.0,1644960776136.0,,,,,,,,1,,,,,,,,,,True,True,False,False,False,False,False,False,False,False,True,0.0,1.0,0.0,0.0,1.0,2.0,"{'ha': 1.0, 'to': 2.0, 'ne': 3.0, 'ku': 4.0}",4-2,4-2,2.0,0.433,1.788,0,192040.0,,3.0,3.0,3.0,,
1197,1447,620c1c0eabf993472117246e,run1,quiz,False,17.0,,,,17.0,61df8999cc7c1c6984f5f11d,620c1a4e4fbad27346561f3f,$0.99,99.0,33.0,6.0,6.0,4.0,ti-he,tihe,1.0,0.0,{},1644960775816.0,1644960775816.0,5378.0,5378.0,2.733,2.645,1644960456166.0,1644960781194.0,,,,,,,,1,,,,,,,,,,True,True,False,False,False,False,False,False,False,False,True,0.0,1.0,0.0,0.0,1.0,2.0,"{'sa': 1.0, 'he': 2.0, 'nu': 3.0, 'ti': 4.0}",4-2,4-2,2.0,0.66125,3.39425,2,325028.0,7.0,8.0,8.0,8.0,0.2857142857142857,2.3333333333333335
1198,1448,620c1c0fabf993472117246f,run1,quiz,False,20.0,,,,20.0,61df8999cc7c1c6984f5f11d,620c1a37da7f4e2ae55104ba,$0.99,99.0,33.0,6.0,6.0,4.0,he-no,heno,1.0,0.0,{},1644960779911.0,1644960779911.0,3837.0,3837.0,1.0,2.837,1644960576637.0,1644960783748.0,,,,,,,,1,,,,,,,,,,True,True,False,False,False,False,False,False,False,False,True,0.0,1.0,0.0,0.0,1.0,2.0,"{'sa': 1.0, 'no': 2.0, 'ti': 3.0, 'he': 4.0}",4-2,4-2,2.0,0.70925,1.70925,2,207111.0,7.0,8.0,8.0,8.0,0.2857142857142857,2.3333333333333335
1205,1455,620c1c15abf9934721172477,run1,quiz,False,19.0,,,,19.0,61df8999cc7c1c6984f5f11d,620c1a61499992ed14a40bdc,$1.26,126.0,42.0,7.0,7.0,5.0,no-hi,nohi,1.0,0.0,{},1644960785228.0,1644960785228.0,3991.0,3991.0,1.688,2.303,1644960501094.0,1644960789219.0,,,,,,,,1,,,,,,,,,,True,True,False,False,False,False,False,False,False,False,True,0.0,1.0,0.0,0.0,1.0,2.0,"{'tu': 1.0, 'hi': 2.0, 'ka': 3.0, 'se': 4.0, 'no': 5.0}",5-2,5-2,2.0,0.57575,2.26375,2,288125.0,8.0,8.0,8.0,8.0,0.25,2.6666666666666665
1213,1465,620c1c24abf9934721172486,run1,quiz,False,21.0,,,,21.0,61df8999cc7c1c6984f5f11d,620c19b64c6867defd6994b5,$0.78,78.0,26.0,6.0,6.0,4.0,ku-to,kuto,1.0,0.0,{},1644960796757.0,1644960796757.0,3323.0,3323.0,1.638,1.685,1644960584096.0,1644960800080.0,,,,,,,,1,,,,,,,,,,True,True,False,False,False,False,False,False,False,False,True,0.0,1.0,0.0,0.0,1.0,2.0,"{'ha': 1.0, 'to': 2.0, 'ne': 3.0, 'ku': 4.0}",4-2,4-2,2.0,0.42125,2.05925,1,215984.0,6.0,5.0,5.0,5.0,0.16666666666666666,3.0
1218,1472,620c1c2eabf9934721172490,run1,quiz,False,17.0,,,,17.0,61df8999cc7c1c6984f5f11d,620c1a4e4fbad27346561f3f,$1.05,105.0,35.0,8.0,8.0,4.0,he-ti,heti,1.0,0.0,{},1644960808599.0,1644960808599.0,5017.0,5017.0,1.789,3.228,1644960456166.0,1644960813616.0,,,,,,,,1,,,,,,,,,,True,True,False,False,False,False,False,False,False,False,True,0.0,0.0,1.0,0.0,1.0,3.0,"{'sa': 1.0, 'he': 2.0, 'nu': 3.0, 'ti': 4.0}",2-4,2-4,2.0,0.807,2.596,0,357450.0,,9.0,9.0,9.0,,
1221,1476,620c1c31abf9934721172496,run1,quiz,False,20.0,,,,20.0,61df8999cc7c1c6984f5f11d,620c1a37da7f4e2ae55104ba,$1.05,105.0,35.0,8.0,8.0,4.0,no-he,nohe,1.0,0.0,{},1644960814772.0,1644960814772.0,2647.0,2647.0,0.967,1.68,1644960576637.0,1644960817419.0,,,,,,,,1,,,,,,,,,,True,True,False,False,False,False,False,False,False,False,True,0.0,0.0,1.0,0.0,1.0,3.0,"{'sa': 1.0, 'no': 2.0, 'ti': 3.0, 'he': 4.0}",2-4,2-4,2.0,0.42,1.387,0,240782.0,,9.0,9.0,9.0,,
1244,1499,620c1c44abf99347211724af,run1,quiz,False,19.0,,,,19.0,61df8999cc7c1c6984f5f11d,620c1a61499992ed14a40bdc,$1.53,153.0,51.0,7.0,7.0,5.0,no-hi,nohi,1.0,0.0,{},1644960832727.0,1644960832727.0,3552.0,3552.0,1.218,2.334,1644960501094.0,1644960836279.0,,,,,,,,1,,,,,,,,,,True,True,False,False,False,False,False,False,False,False,True,0.0,1.0,0.0,0.0,1.0,2.0,"{'tu': 1.0, 'hi': 2.0, 'ka': 3.0, 'se': 4.0, 'no': 5.0}",5-2,5-2,2.0,0.5835,1.8015,3,335185.0,9.0,12.0,12.0,12.0,0.3333333333333333,2.25
1247,1502,620c1c45abf99347211724b2,run1,quiz,False,20.0,,,,20.0,61df8999cc7c1c6984f5f11d,620c1a37da7f4e2ae55104ba,$1.23,123.0,41.0,6.0,6.0,4.0,he-no,heno,1.0,0.0,{},1644960834249.0,1644960834249.0,2756.0,2756.0,0.945,1.811,1644960576637.0,1644960837005.0,,,,,,,,1,,,,,,,,,,True,True,False,False,False,False,False,False,False,False,True,0.0,1.0,0.0,0.0,1.0,2.0,"{'sa': 1.0, 'no': 2.0, 'ti': 3.0, 'he': 4.0}",4-2,4-2,2.0,0.45275,1.3977499999999998,3,260368.0,8.0,11.0,11.0,11.0,0.375,2.0
1255,1510,620c1c4eabf99347211724bd,run1,quiz,False,21.0,,,,21.0,61df8999cc7c1c6984f5f11d,620c19b64c6867defd6994b5,$0.99,99.0,33.0,6.0,6.0,4.0,ku-to,kuto,1.0,0.0,{},1644960838378.0,1644960838378.0,3925.0,3925.0,2.21,1.715,1644960584096.0,1644960842303.0,,,,,,,,1,,,,,,,,,,True,True,False,False,False,False,False,False,False,False,True,0.0,1.0,0.0,0.0,1.0,2.0,"{'ha': 1.0, 'to': 2.0, 'ne': 3.0, 'ku': 4.0}",4-2,4-2,2.0,0.42875,2.63875,2,258207.0,7.0,8.0,8.0,8.0,0.2857142857142857,2.3333333333333335
1257,1512,620c1c55abf99347211724c2,run1,quiz,False,20.0,,,,20.0,61df8999cc7c1c6984f5f11d,620c1a37da7f4e2ae55104ba,$1.29,129.0,43.0,8.0,8.0,4.0,no-he,nohe,1.0,0.0,{},1644960843462.0,1644960843462.0,9560.0,9560.0,3.11,6.45,1644960576637.0,1644960853022.0,,,,,,,,1,,,,,,,,,,True,True,False,False,False,False,False,False,False,False,True,0.0,0.0,1.0,0.0,1.0,3.0,"{'sa': 1.0, 'no': 2.0, 'ti': 3.0, 'he': 4.0}",2-4,2-4,2.0,1.6125,4.7225,1,276385.0,8.0,12.0,12.0,12.0,0.125,4.0
1258,1514,620c1c55abf99347211724c4,run1,quiz,False,17.0,,,,17.0,61df8999cc7c1c6984f5f11d,620c1a4e4fbad27346561f3f,$1.23,123.0,41.0,6.0,6.0,4.0,ti-he,tihe,1.0,0.0,{},1644960845625.0,1644960845625.0,6687.0,6687.0,3.747,2.94,1644960456166.0,1644960852312.0,,,,,,,,1,,,,,,,,,,True,True,False,False,False,False,False,False,False,False,True,0.0,1.0,0.0,0.0,1.0,2.0,"{'sa': 1.0, 'he': 2.0, 'nu': 3.0, 'ti': 4.0}",4-2,4-2,2.0,0.735,4.482,3,396146.0,8.0,11.0,11.0,11.0,0.375,2.0
1259,1515,620c1c5babf99347211724c7,run1,quiz,False,19.0,,,,19.0,61df8999cc7c1c6984f5f11d,620c1a61499992ed14a40bdc,$1.62,162.0,54.0,0.0,10.0,5.0,hi-no,hino,1.0,0.0,{},1644960853965.0,1644960853965.0,5230.0,5230.0,2.277,2.953,1644960501094.0,1644960859195.0,,,,,,,,1,,,,,,,,,,True,True,False,False,False,False,False,False,False,False,True,0.0,0.0,1.0,0.0,1.0,3.0,"{'tu': 1.0, 'hi': 2.0, 'ka': 3.0, 'se': 4.0, 'no': 5.0}",2-5,2-5,2.0,0.73825,3.01525,0,358101.0,,14.0,14.0,14.0,,
1262,1519,620c1c64abf99347211724cd,run1,quiz,False,21.0,,,,21.0,61df8999cc7c1c6984f5f11d,620c19b64c6867defd6994b5,$1.05,105.0,35.0,8.0,8.0,4.0,to-ku,toku,1.0,0.0,{},1644960861057.0,1644960861057.0,3350.0,3350.0,1.413,1.937,1644960584096.0,1644960864407.0,,,,,,,,1,,,,,,,,,,True,True,False,False,False,False,False,False,False,False,True,0.0,0.0,1.0,0.0,1.0,3.0,"{'ha': 1.0, 'to': 2.0, 'ne': 3.0, 'ku': 4.0}",2-4,2-4,2.0,0.48425,1.89725,0,280311.0,,9.0,9.0,9.0,,
1265,1522,620c1c67abf99347211724d1,run1,quiz,False,17.0,,,,17.0,61df8999cc7c1c6984f5f11d,620c1a4e4fbad27346561f3f,$1.29,129.0,43.0,8.0,8.0,4.0,he-ti,heti,1.0,0.0,{},1644960861998.0,1644960861998.0,8618.0,8618.0,3.919,4.699,1644960456166.0,1644960870616.0,,,,,,,,1,,,,,,,,,,True,True,False,False,False,False,False,False,False,False,True,0.0,0.0,1.0,0.0,1.0,3.0,"{'sa': 1.0, 'he': 2.0, 'nu': 3.0, 'ti': 4.0}",2-4,2-4,2.0,1.17475,5.09375,1,414450.0,8.0,12.0,12.0,12.0,0.125,4.0
1276,1535,620c1c79abf99347211724df,run1,quiz,True,19.0,,,,19.0,61df8999cc7c1c6984f5f11d,620c1a61499992ed14a40bdc,$1.83,183.0,61.0,7.0,7.0,5.0,no-hi,nohi,1.0,0.0,{},1644960885090.0,1644960885090.0,4021.0,4021.0,1.461,2.56,1644960501094.0,1644960889111.0,,,,,,,,1,,,,,,,,,,True,True,False,False,False,False,False,False,False,False,True,0.0,1.0,0.0,0.0,1.0,2.0,"{'tu': 1.0, 'hi': 2.0, 'ka': 3.0, 'se': 4.0, 'no': 5.0}",5-2,5-2,2.0,0.64,2.101,4,388017.0,10.0,16.0,16.0,16.0,0.4,2.0
1284,1544,620c1c85abf99347211724e8,run1,quiz,False,20.0,,,,20.0,61df8999cc7c1c6984f5f11d,620c1a37da7f4e2ae55104ba,$1.5,150.0,50.0,6.0,6.0,4.0,he-no,heno,1.0,0.0,{},1644960898068.0,1644960898068.0,3022.0,3022.0,0.98,2.042,1644960576637.0,1644960901090.0,,,,,,,,1,,,,,,,,,,True,True,False,False,False,False,False,False,False,False,True,0.0,1.0,0.0,0.0,1.0,2.0,"{'sa': 1.0, 'no': 2.0, 'ti': 3.0, 'he': 4.0}",4-2,4-2,2.0,0.5105,1.4905,4,324453.0,9.0,15.0,15.0,15.0,0.4444444444444444,1.8
1285,1545,620c1c86abf99347211724e9,run1,quiz,False,21.0,,,,21.0,61df8999cc7c1c6984f5f11d,620c19b64c6867defd6994b5,$1.23,123.0,41.0,6.0,6.0,4.0,ku-to,kuto,1.0,0.0,{},1644960889370.0,1644960889370.0,8957.0,8957.0,5.758,3.199,1644960584096.0,1644960898327.0,,,,,,,,1,,,,,,,,,,True,True,False,False,False,False,False,False,False,False,True,0.0,1.0,0.0,0.0,1.0,2.0,"{'ha': 1.0, 'to': 2.0, 'ne': 3.0, 'ku': 4.0}",4-2,4-2,2.0,0.79975,6.55775,3,314231.0,8.0,11.0,11.0,11.0,0.375,2.0
1287,1547,620c1c89abf99347211724eb,run1,quiz,True,19.0,,,,19.0,61df8999cc7c1c6984f5f11d,620c1a61499992ed14a40bdc,$1.92,192.0,64.0,0.0,10.0,5.0,hi-no,hino,1.0,0.0,{},1644960899581.0,1644960899581.0,5532.0,5532.0,2.415,3.117,1644960501094.0,1644960905113.0,,,,,,,,1,,,,,,,,,,True,True,False,False,False,False,False,False,False,False,True,0.0,0.0,1.0,0.0,1.0,3.0,"{'tu': 1.0, 'hi': 2.0, 'ka': 3.0, 'se': 4.0, 'no': 5.0}",2-5,2-5,2.0,0.77925,3.1942500000000003,1,404019.0,10.0,18.0,18.0,18.0,0.1,5.0
1291,1551,620c1c8dabf99347211724ef,run1,quiz,False,20.0,,,,20.0,61df8999cc7c1c6984f5f11d,620c1a37da7f4e2ae55104ba,$1.56,156.0,52.0,8.0,8.0,4.0,no-he,nohe,1.0,0.0,{},1644960906402.0,1644960906402.0,3218.0,3218.0,1.139,2.079,1644960576637.0,1644960909620.0,,,,,,,,1,,,,,,,,,,True,True,False,False,False,False,False,False,False,False,True,0.0,0.0,1.0,0.0,1.0,3.0,"{'sa': 1.0, 'no': 2.0, 'ti': 3.0, 'he': 4.0}",2-4,2-4,2.0,0.51975,1.65875,2,332983.0,9.0,16.0,16.0,16.0,0.2222222222222222,3.0
1292,1552,620c1c90abf99347211724f0,run1,quiz,False,21.0,,,,21.0,61df8999cc7c1c6984f5f11d,620c19b64c6867defd6994b5,$1.29,129.0,43.0,8.0,8.0,4.0,to-ku,toku,1.0,0.0,{},1644960904386.0,1644960904386.0,3933.0,3933.0,1.896,2.037,1644960584096.0,1644960908319.0,,,,,,,,1,,,,,,,,,,True,True,False,False,False,False,False,False,False,False,True,0.0,0.0,1.0,0.0,1.0,3.0,"{'ha': 1.0, 'to': 2.0, 'ne': 3.0, 'ku': 4.0}",2-4,2-4,2.0,0.50925,2.40525,1,324223.0,8.0,12.0,12.0,12.0,0.125,4.0
1300,1563,620c1ca7abf99347211724fb,run1,quiz,False,17.0,,,,17.0,61df8999cc7c1c6984f5f11d,620c1a4e4fbad27346561f3f,$1.5,150.0,50.0,6.0,6.0,4.0,ti-he,tihe,1.0,0.0,{},1644960926523.0,1644960926523.0,8101.0,8101.0,4.009,4.092,1644960456166.0,1644960934624.0,,,,,,,,1,,,,,,,,,,True,True,False,False,False,False,False,False,False,False,True,0.0,1.0,0.0,0.0,1.0,2.0,"{'sa': 1.0, 'he': 2.0, 'nu': 3.0, 'ti': 4.0}",4-2,4-2,2.0,1.023,5.032,4,478458.0,9.0,15.0,15.0,15.0,0.4444444444444444,1.8
1310,1573,620c1cb5abf9934721172505,run1,quiz,False,17.0,,,,17.0,61df8999cc7c1c6984f5f11d,620c1a4e4fbad27346561f3f,$1.56,156.0,52.0,8.0,8.0,4.0,he-ti,heti,1.0,0.0,{},1644960942839.0,1644960942839.0,6157.0,6157.0,3.261,2.896,1644960456166.0,1644960948996.0,,,,,,,,1,,,,,,,,,,True,True,False,False,False,False,False,False,False,False,True,0.0,0.0,1.0,0.0,1.0,3.0,"{'sa': 1.0, 'he': 2.0, 'nu': 3.0, 'ti': 4.0}",2-4,2-4,2.0,0.724,3.985,2,492830.0,9.0,16.0,16.0,16.0,0.2222222222222222,3.0
1312,1575,620c1cb8abf9934721172507,run1,quiz,True,20.0,,,,20.0,61df8999cc7c1c6984f5f11d,620c1a37da7f4e2ae55104ba,$1.8,180.0,60.0,6.0,6.0,4.0,he-no,heno,1.0,0.0,{},1644960950091.0,1644960950091.0,2623.0,2623.0,0.868,1.755,1644960576637.0,1644960952714.0,,,,,,,,1,,,,,,,,,,True,True,False,False,False,False,False,False,False,False,True,0.0,1.0,0.0,0.0,1.0,2.0,"{'sa': 1.0, 'no': 2.0, 'ti': 3.0, 'he': 4.0}",4-2,4-2,2.0,0.43875,1.30675,5,376077.0,10.0,20.0,20.0,20.0,0.5,1.6666666666666667
1315,1578,620c1cbfabf993472117250a,run1,quiz,False,21.0,,,,21.0,61df8999cc7c1c6984f5f11d,620c19b64c6867defd6994b5,$1.5,150.0,50.0,6.0,6.0,4.0,ku-to,kuto,1.0,0.0,{},1644960947626.0,1644960947626.0,5005.0,5005.0,3.078,1.927,1644960584096.0,1644960952631.0,,,,,,,,1,,,,,,,,,,True,True,False,False,False,False,False,False,False,False,True,0.0,1.0,0.0,0.0,1.0,2.0,"{'ha': 1.0, 'to': 2.0, 'ne': 3.0, 'ku': 4.0}",4-2,4-2,2.0,0.48175,3.55975,4,368535.0,9.0,15.0,15.0,15.0,0.4444444444444444,1.8
1317,1580,620c1cc2abf993472117250c,run1,quiz,True,20.0,,,,20.0,61df8999cc7c1c6984f5f11d,620c1a37da7f4e2ae55104ba,$1.86,186.0,62.0,8.0,8.0,4.0,no-he,nohe,1.0,0.0,{},1644960957386.0,1644960957386.0,4678.0,4678.0,2.114,2.564,1644960576637.0,1644960962064.0,,,,,,,,1,,,,,,,,,,True,True,False,False,False,False,False,False,False,False,True,0.0,0.0,1.0,0.0,1.0,3.0,"{'sa': 1.0, 'no': 2.0, 'ti': 3.0, 'he': 4.0}",2-4,2-4,2.0,0.641,2.755,3,385427.0,10.0,21.0,21.0,21.0,0.3,2.5
1318,1581,620c1cc7abf993472117250d,run1,quiz,False,21.0,,,,21.0,61df8999cc7c1c6984f5f11d,620c19b64c6867defd6994b5,$1.56,156.0,52.0,8.0,8.0,4.0,to-ku,toku,1.0,0.0,{},1644960958362.0,1644960958362.0,4557.0,4557.0,1.601,2.956,1644960584096.0,1644960962919.0,,,,,,,,1,,,,,,,,,,True,True,False,False,False,False,False,False,False,False,True,0.0,0.0,1.0,0.0,1.0,3.0,"{'ha': 1.0, 'to': 2.0, 'ne': 3.0, 'ku': 4.0}",2-4,2-4,2.0,0.739,2.34,2,378823.0,9.0,16.0,16.0,16.0,0.2222222222222222,3.0
1334,1599,620c1cfaabf9934721172520,run1,quiz,True,21.0,,,,21.0,61df8999cc7c1c6984f5f11d,620c19b64c6867defd6994b5,$1.8,180.0,60.0,6.0,6.0,4.0,ku-to,kuto,1.0,0.0,{},1644961009889.0,1644961009889.0,4230.0,4230.0,2.566,1.664,1644960584096.0,1644961014119.0,,,,,,,,1,,,,,,,,,,True,True,False,False,False,False,False,False,False,False,True,0.0,1.0,0.0,0.0,1.0,2.0,"{'ha': 1.0, 'to': 2.0, 'ne': 3.0, 'ku': 4.0}",4-2,4-2,2.0,0.416,2.982,5,430023.0,10.0,20.0,20.0,20.0,0.5,1.6666666666666667
1335,1600,620c1cfdabf9934721172521,run1,quiz,True,17.0,,,,17.0,61df8999cc7c1c6984f5f11d,620c1a4e4fbad27346561f3f,$1.8,180.0,60.0,6.0,6.0,4.0,ti-he,tihe,1.0,0.0,{},1644961014706.0,1644961014706.0,5614.0,5614.0,2.666,2.948,1644960456166.0,1644961020320.0,,,,,,,,1,,,,,,,,,,True,True,False,False,False,False,False,False,False,False,True,0.0,1.0,0.0,0.0,1.0,2.0,"{'sa': 1.0, 'he': 2.0, 'nu': 3.0, 'ti': 4.0}",4-2,4-2,2.0,0.737,3.403,5,564154.0,10.0,20.0,20.0,20.0,0.5,1.6666666666666667
1338,1603,620c1d04abf9934721172524,run1,quiz,True,21.0,,,,21.0,61df8999cc7c1c6984f5f11d,620c19b64c6867defd6994b5,$1.86,186.0,62.0,8.0,8.0,4.0,to-ku,toku,1.0,0.0,{},1644961019842.0,1644961019842.0,4293.0,4293.0,2.601,1.692,1644960584096.0,1644961024135.0,,,,,,,,1,,,,,,,,,,True,True,False,False,False,False,False,False,False,False,True,0.0,0.0,1.0,0.0,1.0,3.0,"{'ha': 1.0, 'to': 2.0, 'ne': 3.0, 'ku': 4.0}",2-4,2-4,2.0,0.423,3.024,3,440039.0,10.0,21.0,21.0,21.0,0.3,2.5
1340,1605,620c1d0babf9934721172528,run1,quiz,True,17.0,,,,17.0,61df8999cc7c1c6984f5f11d,620c1a4e4fbad27346561f3f,$1.86,186.0,62.0,8.0,8.0,4.0,he-ti,heti,1.0,0.0,{},1644961028298.0,1644961028298.0,6554.0,6554.0,3.186,3.368,1644960456166.0,1644961034852.0,,,,,,,,1,,,,,,,,,,True,True,False,False,False,False,False,False,False,False,True,0.0,0.0,1.0,0.0,1.0,3.0,"{'sa': 1.0, 'he': 2.0, 'nu': 3.0, 'ti': 4.0}",2-4,2-4,2.0,0.842,4.028,3,578686.0,10.0,21.0,21.0,21.0,0.3,2.5
1378,1665,620c2557abf99347211725b4,run1,quiz,False,22.0,,,,22.0,61df8999cc7c1c6984f5f11d,620c241fedf67da52050ae16,$0.78,78.0,27.0,7.0,7.0,5.0,na-ko,nako,1.0,0.0,{},1644963156290.0,1644963156290.0,3312.0,3312.0,1.428,1.884,1644962918495.0,1644963159602.0,,,,,,,,1,,,,,,,,,,True,True,False,False,False,False,False,False,False,False,True,0.0,1.0,0.0,0.0,1.0,2.0,"{'si': 1.0, 'ko': 2.0, 'he': 3.0, 'tu': 4.0, 'na': 5.0}",5-2,5-2,2.0,0.471,1.899,0,241107.0,,3.0,3.0,3.0,,
1391,1682,620c2571abf99347211725cf,run1,quiz,False,22.0,,,,22.0,61df8999cc7c1c6984f5f11d,620c241fedf67da52050ae16,$0.99,99.0,34.0,7.0,7.0,5.0,na-ko,nako,1.0,0.0,{},1644963182955.0,1644963182955.0,2722.0,2722.0,0.938,1.784,1644962918495.0,1644963185677.0,,,,,,,,1,,,,,,,,,,True,True,False,False,False,False,False,False,False,False,True,0.0,1.0,0.0,0.0,1.0,2.0,"{'si': 1.0, 'ko': 2.0, 'he': 3.0, 'tu': 4.0, 'na': 5.0}",5-2,5-2,2.0,0.446,1.384,1,267182.0,7.0,5.0,5.0,5.0,0.14285714285714285,3.5
1411,1706,620c2592abf9934721172600,run1,quiz,False,22.0,,,,22.0,61df8999cc7c1c6984f5f11d,620c241fedf67da52050ae16,$1.23,123.0,42.0,7.0,7.0,5.0,na-ko,nako,1.0,0.0,{},1644963215186.0,1644963215186.0,2746.0,2746.0,0.806,1.94,1644962918495.0,1644963217932.0,,,,,,,,1,,,,,,,,,,True,True,False,False,False,False,False,False,False,False,True,0.0,1.0,0.0,0.0,1.0,2.0,"{'si': 1.0, 'ko': 2.0, 'he': 3.0, 'tu': 4.0, 'na': 5.0}",5-2,5-2,2.0,0.485,1.291,2,299437.0,8.0,8.0,8.0,8.0,0.25,2.6666666666666665
1426,1724,620c25b3abf993472117262d,run1,quiz,False,22.0,,,,22.0,61df8999cc7c1c6984f5f11d,620c241fedf67da52050ae16,$1.5,150.0,51.0,7.0,7.0,5.0,na-ko,nako,1.0,0.0,{},1644963249481.0,1644963249481.0,2330.0,2330.0,0.176,2.154,1644962918495.0,1644963251811.0,,,,,,,,1,,,,,,,,,,True,True,False,False,False,False,False,False,False,False,True,0.0,1.0,0.0,0.0,1.0,2.0,"{'si': 1.0, 'ko': 2.0, 'he': 3.0, 'tu': 4.0, 'na': 5.0}",5-2,5-2,2.0,0.5385,0.7144999999999999,3,333316.0,9.0,12.0,12.0,12.0,0.3333333333333333,2.25
1436,1737,620c25c8abf993472117264b,run1,quiz,False,22.0,,,,22.0,61df8999cc7c1c6984f5f11d,620c241fedf67da52050ae16,$1.59,159.0,54.0,0.0,10.0,5.0,ko-na,kona,1.0,0.0,{},1644963266910.0,1644963266910.0,5209.0,5209.0,1.577,3.632,1644962918495.0,1644963272119.0,,,,,,,,1,,,,,,,,,,True,True,False,False,False,False,False,False,False,False,True,0.0,0.0,1.0,0.0,1.0,3.0,"{'si': 1.0, 'ko': 2.0, 'he': 3.0, 'tu': 4.0, 'na': 5.0}",2-5,2-5,2.0,0.908,2.485,0,353624.0,,14.0,14.0,14.0,,
1453,1757,620c25e2abf9934721172671,run1,quiz,True,22.0,,,,22.0,61df8999cc7c1c6984f5f11d,620c241fedf67da52050ae16,$1.8,180.0,61.0,7.0,7.0,5.0,na-ko,nako,1.0,0.0,{},1644963295368.0,1644963295368.0,3277.0,3277.0,0.546,2.731,1644962918495.0,1644963298645.0,,,,,,,,1,,,,,,,,,,True,True,False,False,False,False,False,False,False,False,True,0.0,1.0,0.0,0.0,1.0,2.0,"{'si': 1.0, 'ko': 2.0, 'he': 3.0, 'tu': 4.0, 'na': 5.0}",5-2,5-2,2.0,0.68275,1.22875,4,380150.0,10.0,16.0,16.0,16.0,0.4,2.0
1460,1766,620c25f1abf9934721172682,run1,quiz,False,24.0,,,,24.0,61df8999cc7c1c6984f5f11d,620c24b4e4d0b50ab0793155,$0.81,81.0,27.0,7.0,7.0,5.0,sa-hi,sahi,1.0,0.0,"{'1644963308832': 'blurred', '1644963311831': 'focused'}",1644963308380.0,1644963308380.0,5170.0,5170.0,4.139,1.031,1644963141829.0,1644963313550.0,,,,,,,,1,,,,,,,,,,True,True,False,False,False,False,True,False,False,False,True,0.0,1.0,0.0,0.0,1.0,2.0,"{'ku': 1.0, 'hi': 2.0, 'no': 3.0, 'te': 4.0, 'sa': 5.0}",5-2,5-2,2.0,0.25775,4.39675,0,171721.0,,3.0,3.0,3.0,,
1462,1768,620c25f4abf9934721172686,run1,quiz,True,22.0,,,,22.0,61df8999cc7c1c6984f5f11d,620c241fedf67da52050ae16,$1.89,189.0,64.0,0.0,10.0,5.0,ko-na,kona,1.0,0.0,{},1644963312853.0,1644963312853.0,3275.0,3275.0,0.465,2.81,1644962918495.0,1644963316128.0,,,,,,,,1,,,,,,,,,,True,True,False,False,False,False,False,False,False,False,True,0.0,0.0,1.0,0.0,1.0,3.0,"{'si': 1.0, 'ko': 2.0, 'he': 3.0, 'tu': 4.0, 'na': 5.0}",2-5,2-5,2.0,0.7025,1.1675,1,397633.0,10.0,18.0,18.0,18.0,0.1,5.0
1465,1772,620c25faabf9934721172690,run1,quiz,False,23.0,,,,23.0,61df8999cc7c1c6984f5f11d,620c246580734cce50469612,$0.73,73.0,27.0,7.0,7.0,5.0,ke-na,kena,1.0,0.0,{},1644963321209.0,1644963321209.0,3796.0,3796.0,2.335,1.461,1644963078337.0,1644963325005.0,,,,,,,,1,,,,,,,,,,True,True,False,False,False,False,False,False,False,False,False,0.0,1.0,0.0,0.0,1.0,2.0,"{'ho': 1.0, 'na': 2.0, 'tu': 3.0, 'si': 4.0, 'ke': 5.0}",5-2,5-2,2.0,0.36525,2.70025,0,246668.0,,3.0,3.0,3.0,,
1475,1783,620c2606abf99347211726a4,run1,quiz,False,24.0,,,,24.0,61df8999cc7c1c6984f5f11d,620c24b4e4d0b50ab0793155,$1.02,102.0,34.0,7.0,7.0,5.0,sa-hi,sahi,1.0,0.0,{},1644963333674.0,1644963333674.0,1208.0,1208.0,0.402,0.806,1644963141829.0,1644963334882.0,,,,,,,,1,,,,,,,,,,True,True,False,False,False,False,False,False,False,False,True,0.0,1.0,0.0,0.0,1.0,2.0,"{'ku': 1.0, 'hi': 2.0, 'no': 3.0, 'te': 4.0, 'sa': 5.0}",5-2,5-2,2.0,0.2015,0.6035,1,193053.0,7.0,5.0,5.0,5.0,0.14285714285714285,3.5
1492,1802,620c2621abf99347211726c6,run1,quiz,False,23.0,,,,23.0,61df8999cc7c1c6984f5f11d,620c246580734cce50469612,$0.94,94.0,34.0,7.0,7.0,5.0,ke-na,kena,1.0,0.0,{},1644963360172.0,1644963360172.0,3781.0,3781.0,2.16,1.621,1644963078337.0,1644963363953.0,,,,,,,,1,,,,,,,,,,True,True,False,False,False,False,False,False,False,False,False,0.0,1.0,0.0,0.0,1.0,2.0,"{'ho': 1.0, 'na': 2.0, 'tu': 3.0, 'si': 4.0, 'ke': 5.0}",5-2,5-2,2.0,0.40525,2.5652500000000003,1,285616.0,7.0,5.0,5.0,5.0,0.14285714285714285,3.5
1495,1805,620c2626abf99347211726ca,run1,quiz,False,24.0,,,,24.0,61df8999cc7c1c6984f5f11d,620c24b4e4d0b50ab0793155,$1.26,126.0,42.0,7.0,7.0,5.0,sa-hi,sahi,1.0,0.0,{},1644963364682.0,1644963364682.0,1904.0,1904.0,0.44,1.464,1644963141829.0,1644963366586.0,,,,,,,,1,,,,,,,,,,True,True,False,False,False,False,False,False,False,False,True,0.0,1.0,0.0,0.0,1.0,2.0,"{'ku': 1.0, 'hi': 2.0, 'no': 3.0, 'te': 4.0, 'sa': 5.0}",5-2,5-2,2.0,0.366,0.806,2,224757.0,8.0,8.0,8.0,8.0,0.25,2.6666666666666665
1514,1828,620c2649abf99347211726f8,run1,quiz,False,24.0,,,,24.0,61df8999cc7c1c6984f5f11d,620c24b4e4d0b50ab0793155,$1.53,153.0,51.0,7.0,7.0,5.0,sa-hi,sahi,1.0,0.0,{},1644963399561.0,1644963399561.0,1718.0,1718.0,0.545,1.173,1644963141829.0,1644963401279.0,,,,,,,,1,,,,,,,,,,True,True,False,False,False,False,False,False,False,False,True,0.0,1.0,0.0,0.0,1.0,2.0,"{'ku': 1.0, 'hi': 2.0, 'no': 3.0, 'te': 4.0, 'sa': 5.0}",5-2,5-2,2.0,0.29325,0.83825,3,259450.0,9.0,12.0,12.0,12.0,0.3333333333333333,2.25
1526,1841,620c265cabf9934721172710,run1,quiz,False,24.0,,,,24.0,61df8999cc7c1c6984f5f11d,620c24b4e4d0b50ab0793155,$1.62,162.0,54.0,0.0,10.0,5.0,hi-sa,hisa,1.0,0.0,{},1644963418159.0,1644963418159.0,2289.0,2289.0,1.308,0.981,1644963141829.0,1644963420448.0,,,,,,,,1,,,,,,,,,,True,True,False,False,False,False,False,False,False,False,True,0.0,0.0,1.0,0.0,1.0,3.0,"{'ku': 1.0, 'hi': 2.0, 'no': 3.0, 'te': 4.0, 'sa': 5.0}",2-5,2-5,2.0,0.24525,1.55325,0,278619.0,,14.0,14.0,14.0,,
1529,1844,620c2660abf9934721172715,run1,quiz,False,23.0,,,,23.0,61df8999cc7c1c6984f5f11d,620c246580734cce50469612,$1.18,118.0,42.0,7.0,7.0,5.0,ke-na,kena,1.0,0.0,{},1644963424110.0,1644963424110.0,2783.0,2783.0,2.158,0.625,1644963078337.0,1644963426893.0,,,,,,,,1,,,,,,,,,,True,True,False,False,False,False,False,False,False,False,False,0.0,1.0,0.0,0.0,1.0,2.0,"{'ho': 1.0, 'na': 2.0, 'tu': 3.0, 'si': 4.0, 'ke': 5.0}",5-2,5-2,2.0,0.15625,2.31425,2,348556.0,8.0,8.0,8.0,8.0,0.25,2.6666666666666665
1534,1851,620c2669abf9934721172725,run1,quiz,False,25.0,,,,25.0,61df8999cc7c1c6984f5f11d,620c259fb8f55b65abc790de,$0.81,81.0,27.0,7.0,7.0,5.0,se-ho,seho,1.0,0.0,{},1644963430603.0,1644963430603.0,3155.0,3155.0,1.478,1.677,1644963283563.0,1644963433758.0,,,,,,,,1,,,,,,,,,,True,True,False,False,False,False,False,False,False,False,True,0.0,1.0,0.0,0.0,1.0,2.0,"{'tu': 1.0, 'ho': 2.0, 'ki': 3.0, 'na': 4.0, 'se': 5.0}",5-2,5-2,2.0,0.41925,1.89725,0,150195.0,,3.0,3.0,3.0,,
1540,1859,620c2677abf9934721172736,run1,quiz,True,24.0,,,,24.0,61df8999cc7c1c6984f5f11d,620c24b4e4d0b50ab0793155,$1.83,183.0,61.0,7.0,7.0,5.0,sa-hi,sahi,1.0,0.0,{},1644963445960.0,1644963445960.0,1803.0,1803.0,0.415,1.388,1644963141829.0,1644963447763.0,,,,,,,,1,,,,,,,,,,True,True,False,False,False,False,False,False,False,False,True,0.0,1.0,0.0,0.0,1.0,2.0,"{'ku': 1.0, 'hi': 2.0, 'no': 3.0, 'te': 4.0, 'sa': 5.0}",5-2,5-2,2.0,0.347,0.762,4,305934.0,10.0,16.0,16.0,16.0,0.4,2.0
1545,1865,620c2680abf9934721172743,run1,quiz,True,24.0,,,,24.0,61df8999cc7c1c6984f5f11d,620c24b4e4d0b50ab0793155,$1.92,192.0,64.0,0.0,10.0,5.0,hi-sa,hisa,1.0,0.0,{},1644963454722.0,1644963454722.0,2232.0,2232.0,0.255,1.977,1644963141829.0,1644963456954.0,,,,,,,,1,,,,,,,,,,True,True,False,False,False,False,False,False,False,False,True,0.0,0.0,1.0,0.0,1.0,3.0,"{'ku': 1.0, 'hi': 2.0, 'no': 3.0, 'te': 4.0, 'sa': 5.0}",2-5,2-5,2.0,0.49425,0.74925,1,315125.0,10.0,18.0,18.0,18.0,0.1,5.0
1553,1874,620c2692abf9934721172756,run1,quiz,False,25.0,,,,25.0,61df8999cc7c1c6984f5f11d,620c259fb8f55b65abc790de,$1.01,101.0,34.0,7.0,7.0,5.0,se-ho,seho,1.0,0.0,{},1644963470492.0,1644963470492.0,3563.0,3563.0,1.277,2.286,1644963283563.0,1644963474055.0,,,,,,,,1,,,,,,,,,,True,True,False,False,False,False,False,False,False,False,True,0.0,1.0,0.0,0.0,1.0,2.0,"{'tu': 1.0, 'ho': 2.0, 'ki': 3.0, 'na': 4.0, 'se': 5.0}",5-2,5-2,2.0,0.5715,1.8485,1,190492.0,7.0,5.0,5.0,5.0,0.14285714285714285,3.5
1558,1880,620c269fabf9934721172764,run1,quiz,False,23.0,,,,23.0,61df8999cc7c1c6984f5f11d,620c246580734cce50469612,$1.43,143.0,51.0,7.0,7.0,5.0,ke-na,kena,1.0,0.0,{},1644963482848.0,1644963482848.0,6949.0,6949.0,3.937,3.012,1644963078337.0,1644963489797.0,,,,,,,,1,,,,,,,,,,True,True,False,False,False,False,False,False,False,False,False,0.0,1.0,0.0,0.0,1.0,2.0,"{'ho': 1.0, 'na': 2.0, 'tu': 3.0, 'si': 4.0, 'ke': 5.0}",5-2,5-2,2.0,0.753,4.69,3,411460.0,9.0,12.0,12.0,12.0,0.3333333333333333,2.25
1566,1889,620c26aeabf9934721172774,run1,quiz,False,25.0,,,,25.0,61df8999cc7c1c6984f5f11d,620c259fb8f55b65abc790de,$1.25,125.0,42.0,7.0,7.0,5.0,se-ho,seho,1.0,0.0,{},1644963500366.0,1644963500366.0,1723.0,1723.0,0.354,1.369,1644963283563.0,1644963502089.0,,,,,,,,1,,,,,,,,,,True,True,False,False,False,False,False,False,False,False,True,0.0,1.0,0.0,0.0,1.0,2.0,"{'tu': 1.0, 'ho': 2.0, 'ki': 3.0, 'na': 4.0, 'se': 5.0}",5-2,5-2,2.0,0.34225,0.69625,2,218526.0,8.0,8.0,8.0,8.0,0.25,2.6666666666666665
1568,1893,620c26b8abf9934721172782,run1,quiz,False,23.0,,,,23.0,61df8999cc7c1c6984f5f11d,620c246580734cce50469612,$1.51,151.0,54.0,0.0,10.0,5.0,na-ke,nake,1.0,0.0,{},1644963510563.0,1644963510563.0,4177.0,4177.0,2.991,1.186,1644963078337.0,1644963514740.0,,,,,,,,1,,,,,,,,,,True,True,False,False,False,False,False,False,False,False,False,0.0,0.0,1.0,0.0,1.0,3.0,"{'ho': 1.0, 'na': 2.0, 'tu': 3.0, 'si': 4.0, 'ke': 5.0}",2-5,2-5,2.0,0.2965,3.2875,0,436403.0,,14.0,14.0,14.0,,
1578,1903,620c26c9abf9934721172794,run1,quiz,False,25.0,,,,25.0,61df8999cc7c1c6984f5f11d,620c259fb8f55b65abc790de,$1.52,152.0,51.0,7.0,7.0,5.0,se-ho,seho,1.0,0.0,{},1644963527947.0,1644963527947.0,1263.0,1263.0,0.373,0.89,1644963283563.0,1644963529210.0,,,,,,,,1,,,,,,,,,,True,True,False,False,False,False,False,False,False,False,True,0.0,1.0,0.0,0.0,1.0,2.0,"{'tu': 1.0, 'ho': 2.0, 'ki': 3.0, 'na': 4.0, 'se': 5.0}",5-2,5-2,2.0,0.2225,0.5955,3,245647.0,9.0,12.0,12.0,12.0,0.3333333333333333,2.25
1582,1909,620c26d5abf993472117279d,run1,quiz,False,25.0,,,,25.0,61df8999cc7c1c6984f5f11d,620c259fb8f55b65abc790de,$1.61,161.0,54.0,0.0,10.0,5.0,ho-se,hose,1.0,0.0,{},1644963539848.0,1644963539848.0,1576.0,1576.0,0.848,0.728,1644963283563.0,1644963541424.0,,,,,,,,1,,,,,,,,,,True,True,False,False,False,False,False,False,False,False,True,0.0,0.0,1.0,0.0,1.0,3.0,"{'tu': 1.0, 'ho': 2.0, 'ki': 3.0, 'na': 4.0, 'se': 5.0}",2-5,2-5,2.0,0.182,1.03,0,257861.0,,14.0,14.0,14.0,,
1592,1919,620c26e6abf99347211727ad,run1,quiz,True,25.0,,,,25.0,61df8999cc7c1c6984f5f11d,620c259fb8f55b65abc790de,$1.82,182.0,61.0,7.0,7.0,5.0,se-ho,seho,1.0,0.0,{},1644963557484.0,1644963557484.0,1238.0,1238.0,0.332,0.906,1644963283563.0,1644963558722.0,,,,,,,,1,,,,,,,,,,True,True,False,False,False,False,False,False,False,False,True,0.0,1.0,0.0,0.0,1.0,2.0,"{'tu': 1.0, 'ho': 2.0, 'ki': 3.0, 'na': 4.0, 'se': 5.0}",5-2,5-2,2.0,0.2265,0.5585,4,275159.0,10.0,16.0,16.0,16.0,0.4,2.0
1595,1922,620c26f2abf99347211727b6,run1,quiz,True,23.0,,,,23.0,61df8999cc7c1c6984f5f11d,620c246580734cce50469612,$1.68,168.0,61.0,7.0,7.0,5.0,ke-na,kesi,0.0,0.0,{},1644963554226.0,1644963554226.0,18991.0,18991.0,2.162,,1644963078337.0,1644963573217.0,,,,,,,,1,,,,,,,,,,True,True,False,False,False,False,False,False,False,False,False,0.0,1.0,0.0,0.0,1.0,2.0,"{'ho': 1.0, 'na': 2.0, 'tu': 3.0, 'si': 4.0, 'ke': 5.0}",5-4,5-2,2.0,,,4,494880.0,10.0,16.0,16.0,16.0,0.4,2.0
1596,1923,620c26f3abf99347211727b7,run1,quiz,True,25.0,,,,25.0,61df8999cc7c1c6984f5f11d,620c259fb8f55b65abc790de,$1.91,191.0,64.0,0.0,10.0,5.0,ho-se,hose,1.0,0.0,{},1644963567908.0,1644963567908.0,3319.0,3319.0,1.211,2.108,1644963283563.0,1644963571227.0,,,,,,,,1,,,,,,,,,,True,True,False,False,False,False,False,False,False,False,True,0.0,0.0,1.0,0.0,1.0,3.0,"{'tu': 1.0, 'ho': 2.0, 'ki': 3.0, 'na': 4.0, 'se': 5.0}",2-5,2-5,2.0,0.527,1.738,1,287664.0,10.0,18.0,18.0,18.0,0.1,5.0
1599,1932,620c272fabf99347211727d3,run1,quiz,True,23.0,,,,23.0,61df8999cc7c1c6984f5f11d,620c246580734cce50469612,$1.71,171.0,64.0,10.0,10.0,5.0,na-ke,neke,0.0,0.0,{},1644963630609.0,1644963630609.0,2968.0,2968.0,1.745,1.223,1644963078337.0,1644963633577.0,,,,,,,,1,,,,,,,,,,True,True,False,False,False,False,False,False,False,False,False,0.0,0.0,1.0,0.0,1.0,3.0,"{'ho': 1.0, 'na': 2.0, 'tu': 3.0, 'si': 4.0, 'ke': 5.0}",ne-5,2-5,2.0,0.30575,2.0507500000000003,1,555240.0,10.0,18.0,18.0,18.0,0.1,5.0
1626,1981,620c37bbabf9934721172998,run1,quiz,False,26.0,,,,26.0,61df8999cc7c1c6984f5f11d,620c3629920bf89803f4cd06,$0.64,64.0,27.0,7.0,7.0,5.0,na-si,nasi,1.0,0.0,{},1644967862269.0,1644967862269.0,4657.0,4657.0,1.799,2.858,1644967575298.0,1644967866926.0,,,,,,,,1,,,,,,,,,,True,True,False,False,False,False,False,False,False,False,False,0.0,1.0,0.0,0.0,1.0,2.0,"{'ke': 1.0, 'si': 2.0, 'tu': 3.0, 'ho': 4.0, 'na': 5.0}",5-2,5-2,2.0,0.7145,2.5135,0,291628.0,,3.0,3.0,3.0,,
1633,1990,620c37e9abf99347211729a1,run1,quiz,False,26.0,,,,26.0,61df8999cc7c1c6984f5f11d,620c3629920bf89803f4cd06,$0.82,82.0,34.0,7.0,7.0,5.0,na-si,nasi,1.0,0.0,{},1644967903369.0,1644967903369.0,9507.0,9507.0,6.424,3.083,1644967575298.0,1644967912876.0,,,,,,,,1,,,,,,,,,,True,True,False,False,False,False,False,False,False,False,False,0.0,1.0,0.0,0.0,1.0,2.0,"{'ke': 1.0, 'si': 2.0, 'tu': 3.0, 'ho': 4.0, 'na': 5.0}",5-2,5-2,2.0,0.77075,7.194750000000001,1,337578.0,7.0,5.0,5.0,5.0,0.14285714285714285,3.5
1641,2005,620c3844abf99347211729b0,run1,quiz,False,26.0,,,,26.0,61df8999cc7c1c6984f5f11d,620c3629920bf89803f4cd06,$0.99,99.0,42.0,7.0,7.0,5.0,na-si,nasi,1.0,0.0,{},1644967999713.0,1644967999713.0,4314.0,4314.0,1.788,2.526,1644967575298.0,1644968004027.0,,,,,,,,1,,,,,,,,,,True,True,False,False,False,False,False,False,False,False,False,0.0,1.0,0.0,0.0,1.0,2.0,"{'ke': 1.0, 'si': 2.0, 'tu': 3.0, 'ho': 4.0, 'na': 5.0}",5-2,5-2,2.0,0.6315,2.4195,2,428729.0,8.0,8.0,8.0,8.0,0.25,2.6666666666666665
1650,2017,620c3890abf99347211729bc,run1,quiz,False,26.0,,,,26.0,61df8999cc7c1c6984f5f11d,620c3629920bf89803f4cd06,$1.23,123.0,51.0,7.0,7.0,5.0,na-si,nasi,1.0,0.0,{},1644968076057.0,1644968076057.0,4040.0,4040.0,1.503,2.537,1644967575298.0,1644968080097.0,,,,,,,,1,,,,,,,,,,True,True,False,False,False,False,False,False,False,False,False,0.0,1.0,0.0,0.0,1.0,2.0,"{'ke': 1.0, 'si': 2.0, 'tu': 3.0, 'ho': 4.0, 'na': 5.0}",5-2,5-2,2.0,0.63425,2.13725,3,504799.0,9.0,12.0,12.0,12.0,0.3333333333333333,2.25
1653,2025,620c38c3abf99347211729c4,run1,quiz,False,26.0,,,,26.0,61df8999cc7c1c6984f5f11d,620c3629920bf89803f4cd06,$1.26,126.0,54.0,0.0,10.0,5.0,si-na,sina,1.0,0.0,{},1644968127472.0,1644968127472.0,3306.0,3306.0,1.276,2.03,1644967575298.0,1644968130778.0,,,,,,,,1,,,,,,,,,,True,True,False,False,False,False,False,False,False,False,False,0.0,0.0,1.0,0.0,1.0,3.0,"{'ke': 1.0, 'si': 2.0, 'tu': 3.0, 'ho': 4.0, 'na': 5.0}",2-5,2-5,2.0,0.5075,1.7835,0,555480.0,,14.0,14.0,14.0,,
1660,2034,620c38f6abf99347211729cd,run1,quiz,True,26.0,,,,26.0,61df8999cc7c1c6984f5f11d,620c3629920bf89803f4cd06,$1.45,145.0,61.0,7.0,7.0,5.0,na-si,nasi,1.0,0.0,{},1644968170994.0,1644968170994.0,11174.0,11174.0,5.785,5.389,1644967575298.0,1644968182168.0,,,,,,,,1,,,,,,,,,,True,True,False,False,False,False,False,False,False,False,False,0.0,1.0,0.0,0.0,1.0,2.0,"{'ke': 1.0, 'si': 2.0, 'tu': 3.0, 'ho': 4.0, 'na': 5.0}",5-2,5-2,2.0,1.34725,7.13225,4,606870.0,10.0,16.0,16.0,16.0,0.4,2.0
1663,2041,620c391fabf99347211729d4,run1,quiz,True,26.0,,,,26.0,61df8999cc7c1c6984f5f11d,620c3629920bf89803f4cd06,$1.45,145.0,64.0,10.0,10.0,5.0,si-na,siku,0.0,0.0,{},1644968219838.0,1644968219839.0,3777.0,3776.0,1.86,1.916,1644967575298.0,1644968223615.0,,,,,,,,1,,,,,,,,,,True,True,False,False,False,False,False,False,False,False,False,0.0,0.0,1.0,0.0,1.0,3.0,"{'ke': 1.0, 'si': 2.0, 'tu': 3.0, 'ho': 4.0, 'na': 5.0}",2-ku,2-5,2.0,0.479,2.339,1,648317.0,10.0,18.0,18.0,18.0,0.1,5.0
1752,2157,6210133ee670ba66f0c1d8ce,run1,quiz,False,28.0,,,,28.0,61df8999cc7c1c6984f5f11d,62101293c8358e3a9f6ed152,$0.6,60.0,20.0,6.0,6.0,4.0,ko-he,kohe,1.0,0.0,{},1645220668597.0,1645220668597.0,2921.0,2921.0,1.847,1.074,1645220576374.0,1645220671518.0,,,,,,,,1,,,,,,,,,,True,True,False,False,False,False,False,False,False,False,True,0.0,1.0,0.0,0.0,1.0,2.0,"{'ti': 1.0, 'he': 2.0, 'nu': 3.0, 'ko': 4.0}",4-2,4-2,2.0,0.2685,2.1155,0,95144.0,,3.0,3.0,3.0,,
1765,2173,6210134ee670ba66f0c1d8e3,run1,quiz,False,28.0,,,,28.0,61df8999cc7c1c6984f5f11d,62101293c8358e3a9f6ed152,$0.78,78.0,26.0,6.0,6.0,4.0,ko-he,kohe,1.0,0.0,{},1645220683627.0,1645220683627.0,4293.0,4293.0,0.786,3.507,1645220576374.0,1645220687920.0,,,,,,,,1,,,,,,,,,,True,True,False,False,False,False,False,False,False,False,True,0.0,1.0,0.0,0.0,1.0,2.0,"{'ti': 1.0, 'he': 2.0, 'nu': 3.0, 'ko': 4.0}",4-2,4-2,2.0,0.87675,1.66275,1,111546.0,6.0,5.0,5.0,5.0,0.16666666666666666,3.0
1785,2197,62101366e670ba66f0c1d901,run1,quiz,False,28.0,,,,28.0,61df8999cc7c1c6984f5f11d,62101293c8358e3a9f6ed152,$0.99,99.0,33.0,6.0,6.0,4.0,ko-he,kohe,1.0,0.0,{},1645220709116.0,1645220709116.0,2047.0,2047.0,0.352,1.695,1645220576374.0,1645220711163.0,,,,,,,,1,,,,,,,,,,True,True,False,False,False,False,False,False,False,False,True,0.0,1.0,0.0,0.0,1.0,2.0,"{'ti': 1.0, 'he': 2.0, 'nu': 3.0, 'ko': 4.0}",4-2,4-2,2.0,0.42375,0.7757499999999999,2,134789.0,7.0,8.0,8.0,8.0,0.2857142857142857,2.3333333333333335
1808,2225,6210138ae670ba66f0c1d928,run1,quiz,False,28.0,,,,28.0,61df8999cc7c1c6984f5f11d,62101293c8358e3a9f6ed152,$1.05,105.0,35.0,8.0,8.0,4.0,he-ko,heko,1.0,0.0,{},1645220746324.0,1645220746324.0,1749.0,1749.0,0.583,1.166,1645220576374.0,1645220748073.0,,,,,,,,1,,,,,,,,,,True,True,False,False,False,False,False,False,False,False,True,0.0,0.0,1.0,0.0,1.0,3.0,"{'ti': 1.0, 'he': 2.0, 'nu': 3.0, 'ko': 4.0}",2-4,2-4,2.0,0.2915,0.8744999999999999,0,171699.0,,9.0,9.0,9.0,,
1826,2245,6210139be670ba66f0c1d941,run1,quiz,False,28.0,,,,28.0,61df8999cc7c1c6984f5f11d,62101293c8358e3a9f6ed152,$1.23,123.0,41.0,6.0,6.0,4.0,ko-he,kohe,1.0,0.0,{},1645220762763.0,1645220762763.0,1771.0,1771.0,0.347,1.424,1645220576374.0,1645220764534.0,,,,,,,,1,,,,,,,,,,True,True,False,False,False,False,False,False,False,False,True,0.0,1.0,0.0,0.0,1.0,2.0,"{'ti': 1.0, 'he': 2.0, 'nu': 3.0, 'ko': 4.0}",4-2,4-2,2.0,0.356,0.703,3,188160.0,8.0,11.0,11.0,11.0,0.375,2.0
1832,2252,621013a5e670ba66f0c1d949,run1,quiz,False,30.0,,,,30.0,61df8999cc7c1c6984f5f11d,621012c6e6cddda91e0e1ada,$0.6,60.0,20.0,6.0,6.0,4.0,se-ki,seki,1.0,0.0,{},1645220769589.0,1645220769589.0,3093.0,3093.0,1.49,1.603,1645220648043.0,1645220772682.0,,,,,,,,1,,,,,,,,,,True,True,False,False,False,False,False,False,False,False,True,0.0,1.0,0.0,0.0,1.0,2.0,"{'to': 1.0, 'ki': 2.0, 'ha': 3.0, 'se': 4.0}",4-2,4-2,2.0,0.40075,1.89075,0,124639.0,,3.0,3.0,3.0,,
1833,2253,621013a5e670ba66f0c1d94b,run1,quiz,False,28.0,,,,28.0,61df8999cc7c1c6984f5f11d,62101293c8358e3a9f6ed152,$1.29,129.0,43.0,8.0,8.0,4.0,he-ko,heko,1.0,0.0,{},1645220768696.0,1645220768696.0,6268.0,6268.0,0.53,5.738,1645220576374.0,1645220774964.0,,,,,,,,1,,,,,,,,,,True,True,False,False,False,False,False,False,False,False,True,0.0,0.0,1.0,0.0,1.0,3.0,"{'ti': 1.0, 'he': 2.0, 'nu': 3.0, 'ko': 4.0}",2-4,2-4,2.0,1.4345,1.9645,1,198590.0,8.0,12.0,12.0,12.0,0.125,4.0
1848,2271,621013b9e670ba66f0c1d962,run1,quiz,False,30.0,,,,30.0,61df8999cc7c1c6984f5f11d,621012c6e6cddda91e0e1ada,$0.78,78.0,26.0,6.0,6.0,4.0,se-ki,seki,1.0,0.0,{},1645220790850.0,1645220790850.0,2596.0,2596.0,1.022,1.574,1645220648043.0,1645220793446.0,,,,,,,,1,,,,,,,,,,True,True,False,False,False,False,False,False,False,False,True,0.0,1.0,0.0,0.0,1.0,2.0,"{'to': 1.0, 'ki': 2.0, 'ha': 3.0, 'se': 4.0}",4-2,4-2,2.0,0.3935,1.4155,1,145403.0,6.0,5.0,5.0,5.0,0.16666666666666666,3.0
1861,2285,621013c7e670ba66f0c1d975,run1,quiz,False,28.0,,,,28.0,61df8999cc7c1c6984f5f11d,62101293c8358e3a9f6ed152,$1.5,150.0,50.0,6.0,6.0,4.0,ko-he,kohe,1.0,0.0,{},1645220806368.0,1645220806368.0,2126.0,2126.0,0.406,1.72,1645220576374.0,1645220808494.0,,,,,,,,1,,,,,,,,,,True,True,False,False,False,False,False,False,False,False,True,0.0,1.0,0.0,0.0,1.0,2.0,"{'ti': 1.0, 'he': 2.0, 'nu': 3.0, 'ko': 4.0}",4-2,4-2,2.0,0.43,0.8360000000000001,4,232120.0,9.0,15.0,15.0,15.0,0.4444444444444444,1.8
1869,2293,621013d1e670ba66f0c1d980,run1,quiz,False,28.0,,,,28.0,61df8999cc7c1c6984f5f11d,62101293c8358e3a9f6ed152,$1.56,156.0,52.0,8.0,8.0,4.0,he-ko,heko,1.0,0.0,{},1645220812430.0,1645220812430.0,5735.0,5735.0,4.305,1.43,1645220576374.0,1645220818165.0,,,,,,,,1,,,,,,,,,,True,True,False,False,False,False,False,False,False,False,True,0.0,0.0,1.0,0.0,1.0,3.0,"{'ti': 1.0, 'he': 2.0, 'nu': 3.0, 'ko': 4.0}",2-4,2-4,2.0,0.3575,4.6625,2,241791.0,9.0,16.0,16.0,16.0,0.2222222222222222,3.0
1873,2299,621013d7e670ba66f0c1d987,run1,quiz,False,30.0,,,,30.0,61df8999cc7c1c6984f5f11d,621012c6e6cddda91e0e1ada,$0.99,99.0,33.0,6.0,6.0,4.0,se-ki,seki,1.0,0.0,{},1645220819382.0,1645220819382.0,4028.0,4028.0,2.616,1.412,1645220648043.0,1645220823410.0,,,,,,,,1,,,,,,,,,,True,True,False,False,False,False,False,False,False,False,True,0.0,1.0,0.0,0.0,1.0,2.0,"{'to': 1.0, 'ki': 2.0, 'ha': 3.0, 'se': 4.0}",4-2,4-2,2.0,0.353,2.9690000000000003,2,175367.0,7.0,8.0,8.0,8.0,0.2857142857142857,2.3333333333333335
1875,2301,621013dbe670ba66f0c1d989,run1,quiz,False,31.0,,,,31.0,61df8999cc7c1c6984f5f11d,621012bd5867f8541228a3f2,$0.6,60.0,20.0,6.0,6.0,4.0,no-si,nosi,1.0,0.0,{},1645220822541.0,1645220822541.0,4782.0,4782.0,2.223,2.559,1645220662737.0,1645220827323.0,,,,,,,,1,,,,,,,,,,True,True,False,False,False,False,False,False,False,False,True,0.0,1.0,0.0,0.0,1.0,2.0,"{'ke': 1.0, 'si': 2.0, 'hu': 3.0, 'no': 4.0}",4-2,4-2,2.0,0.63975,2.86275,0,164586.0,,3.0,3.0,3.0,,
1884,2313,621013e6e670ba66f0c1d997,run1,quiz,False,30.0,,,,30.0,61df8999cc7c1c6984f5f11d,621012c6e6cddda91e0e1ada,$1.05,105.0,35.0,8.0,8.0,4.0,ki-se,kise,1.0,0.0,{},1645220835419.0,1645220835419.0,2711.0,2711.0,1.088,1.623,1645220648043.0,1645220838130.0,,,,,,,,1,,,,,,,,,,True,True,False,False,False,False,False,False,False,False,True,0.0,0.0,1.0,0.0,1.0,3.0,"{'to': 1.0, 'ki': 2.0, 'ha': 3.0, 'se': 4.0}",2-4,2-4,2.0,0.40575,1.49375,0,190087.0,,9.0,9.0,9.0,,
1897,2326,621013f1e670ba66f0c1d9a5,run1,quiz,True,28.0,,,,28.0,61df8999cc7c1c6984f5f11d,62101293c8358e3a9f6ed152,$1.8,180.0,60.0,6.0,6.0,4.0,ko-he,kohe,1.0,0.0,{},1645220848398.0,1645220848398.0,1809.0,1809.0,0.286,1.523,1645220576374.0,1645220850207.0,,,,,,,,1,,,,,,,,,,True,True,False,False,False,False,False,False,False,False,True,0.0,1.0,0.0,0.0,1.0,2.0,"{'ti': 1.0, 'he': 2.0, 'nu': 3.0, 'ko': 4.0}",4-2,4-2,2.0,0.38075,0.66675,5,273833.0,10.0,20.0,20.0,20.0,0.5,1.6666666666666667
1901,2330,621013f4e670ba66f0c1d9aa,run1,quiz,False,31.0,,,,31.0,61df8999cc7c1c6984f5f11d,621012bd5867f8541228a3f2,$0.78,78.0,26.0,6.0,6.0,4.0,no-si,nosi,1.0,0.0,{},1645220848572.0,1645220848572.0,2897.0,2897.0,1.913,0.984,1645220662737.0,1645220851469.0,,,,,,,,1,,,,,,,,,,True,True,False,False,False,False,False,False,False,False,True,0.0,1.0,0.0,0.0,1.0,2.0,"{'ke': 1.0, 'si': 2.0, 'hu': 3.0, 'no': 4.0}",4-2,4-2,2.0,0.246,2.159,1,188732.0,6.0,5.0,5.0,5.0,0.16666666666666666,3.0
1903,2332,621013f6e670ba66f0c1d9ac,run1,quiz,True,28.0,,,,28.0,61df8999cc7c1c6984f5f11d,62101293c8358e3a9f6ed152,$1.86,186.0,62.0,8.0,8.0,4.0,he-ko,heko,1.0,0.0,{},1645220853977.0,1645220853977.0,1889.0,1889.0,0.33,1.559,1645220576374.0,1645220855866.0,,,,,,,,1,,,,,,,,,,True,True,False,False,False,False,False,False,False,False,True,0.0,0.0,1.0,0.0,1.0,3.0,"{'ti': 1.0, 'he': 2.0, 'nu': 3.0, 'ko': 4.0}",2-4,2-4,2.0,0.38975,0.71975,3,279492.0,10.0,21.0,21.0,21.0,0.3,2.5
1907,2336,621013fbe670ba66f0c1d9b0,run1,quiz,False,30.0,,,,30.0,61df8999cc7c1c6984f5f11d,621012c6e6cddda91e0e1ada,$1.23,123.0,41.0,6.0,6.0,4.0,se-ki,seki,1.0,0.0,{},1645220855791.0,1645220855791.0,3627.0,3627.0,0.993,2.634,1645220648043.0,1645220859418.0,,,,,,,,1,,,,,,,,,,True,True,False,False,False,False,False,False,False,False,True,0.0,1.0,0.0,0.0,1.0,2.0,"{'to': 1.0, 'ki': 2.0, 'ha': 3.0, 'se': 4.0}",4-2,4-2,2.0,0.6585,1.6515,3,211375.0,8.0,11.0,11.0,11.0,0.375,2.0
1916,2347,6210140ae670ba66f0c1d9bf,run1,quiz,False,30.0,,,,30.0,61df8999cc7c1c6984f5f11d,621012c6e6cddda91e0e1ada,$1.29,129.0,43.0,8.0,8.0,4.0,ki-se,kise,1.0,0.0,{},1645220866883.0,1645220866883.0,6769.0,6769.0,1.648,5.121,1645220648043.0,1645220873652.0,,,,,,,,1,,,,,,,,,,True,True,False,False,False,False,False,False,False,False,True,0.0,0.0,1.0,0.0,1.0,3.0,"{'to': 1.0, 'ki': 2.0, 'ha': 3.0, 'se': 4.0}",2-4,2-4,2.0,1.28025,2.92825,1,225609.0,8.0,12.0,12.0,12.0,0.125,4.0
1923,2355,62101414e670ba66f0c1d9cb,run1,quiz,False,31.0,,,,31.0,61df8999cc7c1c6984f5f11d,621012bd5867f8541228a3f2,$0.99,99.0,33.0,6.0,6.0,4.0,no-si,nosi,1.0,0.0,{},1645220881343.0,1645220881343.0,3041.0,3041.0,1.242,1.799,1645220662737.0,1645220884384.0,,,,,,,,1,,,,,,,,,,True,True,False,False,False,False,False,False,False,False,True,0.0,1.0,0.0,0.0,1.0,2.0,"{'ke': 1.0, 'si': 2.0, 'hu': 3.0, 'no': 4.0}",4-2,4-2,2.0,0.44975,1.69175,2,221647.0,7.0,8.0,8.0,8.0,0.2857142857142857,2.3333333333333335
1936,2368,62101428e670ba66f0c1d9db,run1,quiz,False,30.0,,,,30.0,61df8999cc7c1c6984f5f11d,621012c6e6cddda91e0e1ada,$1.5,150.0,50.0,6.0,6.0,4.0,se-ki,seki,1.0,0.0,{},1645220901953.0,1645220901953.0,2117.0,2117.0,0.027,2.09,1645220648043.0,1645220904070.0,,,,,,,,1,,,,,,,,,,True,True,False,False,False,False,False,False,False,False,True,0.0,1.0,0.0,0.0,1.0,2.0,"{'to': 1.0, 'ki': 2.0, 'ha': 3.0, 'se': 4.0}",4-2,4-2,2.0,0.5225,0.5495,4,256027.0,9.0,15.0,15.0,15.0,0.4444444444444444,1.8
1939,2372,62101430e670ba66f0c1d9e1,run1,quiz,False,31.0,,,,31.0,61df8999cc7c1c6984f5f11d,621012bd5867f8541228a3f2,$1.05,105.0,35.0,8.0,8.0,4.0,si-no,sino,1.0,0.0,{},1645220906668.0,1645220906668.0,5524.0,5524.0,2.245,3.279,1645220662737.0,1645220912192.0,,,,,,,,1,,,,,,,,,,True,True,False,False,False,False,False,False,False,False,True,0.0,0.0,1.0,0.0,1.0,3.0,"{'ke': 1.0, 'si': 2.0, 'hu': 3.0, 'no': 4.0}",2-4,2-4,2.0,0.81975,3.06475,0,249455.0,,9.0,9.0,9.0,,
1940,2374,62101431e670ba66f0c1d9e3,run1,quiz,False,30.0,,,,30.0,61df8999cc7c1c6984f5f11d,621012c6e6cddda91e0e1ada,$1.56,156.0,52.0,8.0,8.0,4.0,ki-se,kise,1.0,0.0,{},1645220907932.0,1645220907932.0,4557.0,4557.0,1.022,3.535,1645220648043.0,1645220912489.0,,,,,,,,1,,,,,,,,,,True,True,False,False,False,False,False,False,False,False,True,0.0,0.0,1.0,0.0,1.0,3.0,"{'to': 1.0, 'ki': 2.0, 'ha': 3.0, 'se': 4.0}",2-4,2-4,2.0,0.88375,1.90575,2,264446.0,9.0,16.0,16.0,16.0,0.2222222222222222,3.0
1948,2384,6210143fe670ba66f0c1d9f0,run1,quiz,False,31.0,,,,31.0,61df8999cc7c1c6984f5f11d,621012bd5867f8541228a3f2,$1.23,123.0,41.0,6.0,6.0,4.0,no-si,nosi,1.0,0.0,{},1645220925409.0,1645220925409.0,1235.0,1235.0,0.297,0.938,1645220662737.0,1645220926644.0,,,,,,,,1,,,,,,,,,,True,True,False,False,False,False,False,False,False,False,True,0.0,1.0,0.0,0.0,1.0,2.0,"{'ke': 1.0, 'si': 2.0, 'hu': 3.0, 'no': 4.0}",4-2,4-2,2.0,0.2345,0.5315,3,263907.0,8.0,11.0,11.0,11.0,0.375,2.0
1952,2388,62101445e670ba66f0c1d9f6,run1,quiz,False,31.0,,,,31.0,61df8999cc7c1c6984f5f11d,621012bd5867f8541228a3f2,$1.29,129.0,43.0,8.0,8.0,4.0,si-no,sino,1.0,0.0,{},1645220930347.0,1645220930347.0,2512.0,2512.0,0.948,1.564,1645220662737.0,1645220932859.0,,,,,,,,1,,,,,,,,,,True,True,False,False,False,False,False,False,False,False,True,0.0,0.0,1.0,0.0,1.0,3.0,"{'ke': 1.0, 'si': 2.0, 'hu': 3.0, 'no': 4.0}",2-4,2-4,2.0,0.391,1.339,1,270122.0,8.0,12.0,12.0,12.0,0.125,4.0
1958,2395,62101456e670ba66f0c1d9fd,run1,quiz,True,30.0,,,,30.0,61df8999cc7c1c6984f5f11d,621012c6e6cddda91e0e1ada,$1.8,180.0,60.0,6.0,6.0,4.0,se-ki,seki,1.0,0.0,{},1645220947924.0,1645220947924.0,1770.0,1770.0,0.191,1.579,1645220648043.0,1645220949694.0,,,,,,,,1,,,,,,,,,,True,True,False,False,False,False,False,False,False,False,True,0.0,1.0,0.0,0.0,1.0,2.0,"{'to': 1.0, 'ki': 2.0, 'ha': 3.0, 'se': 4.0}",4-2,4-2,2.0,0.39475,0.58575,5,301651.0,10.0,20.0,20.0,20.0,0.5,1.6666666666666667
1962,2399,6210145be670ba66f0c1da01,run1,quiz,True,30.0,,,,30.0,61df8999cc7c1c6984f5f11d,621012c6e6cddda91e0e1ada,$1.86,186.0,62.0,8.0,8.0,4.0,ki-se,kise,1.0,0.0,{},1645220953406.0,1645220953406.0,1694.0,1694.0,0.607,1.087,1645220648043.0,1645220955100.0,,,,,,,,1,,,,,,,,,,True,True,False,False,False,False,False,False,False,False,True,0.0,0.0,1.0,0.0,1.0,3.0,"{'to': 1.0, 'ki': 2.0, 'ha': 3.0, 'se': 4.0}",2-4,2-4,2.0,0.27175,0.8787499999999999,3,307057.0,10.0,21.0,21.0,21.0,0.3,2.5
1969,2406,62101467e670ba66f0c1da08,run1,quiz,False,31.0,,,,31.0,61df8999cc7c1c6984f5f11d,621012bd5867f8541228a3f2,$1.5,150.0,50.0,6.0,6.0,4.0,no-si,nosi,1.0,0.0,{},1645220965161.0,1645220965161.0,2230.0,2230.0,0.941,1.289,1645220662737.0,1645220967391.0,,,,,,,,1,,,,,,,,,,True,True,False,False,False,False,False,False,False,False,True,0.0,1.0,0.0,0.0,1.0,2.0,"{'ke': 1.0, 'si': 2.0, 'hu': 3.0, 'no': 4.0}",4-2,4-2,2.0,0.32225,1.26325,4,304654.0,9.0,15.0,15.0,15.0,0.4444444444444444,1.8
1971,2408,62101470e670ba66f0c1da0b,run1,quiz,False,31.0,,,,31.0,61df8999cc7c1c6984f5f11d,621012bd5867f8541228a3f2,$1.56,156.0,52.0,8.0,8.0,4.0,si-no,sino,1.0,0.0,{},1645220973029.0,1645220973029.0,2915.0,2915.0,0.675,2.24,1645220662737.0,1645220975944.0,,,,,,,,1,,,,,,,,,,True,True,False,False,False,False,False,False,False,False,True,0.0,0.0,1.0,0.0,1.0,3.0,"{'ke': 1.0, 'si': 2.0, 'hu': 3.0, 'no': 4.0}",2-4,2-4,2.0,0.56,1.235,2,313207.0,9.0,16.0,16.0,16.0,0.2222222222222222,3.0
1979,2418,6210148fe670ba66f0c1da16,run1,quiz,True,31.0,,,,31.0,61df8999cc7c1c6984f5f11d,621012bd5867f8541228a3f2,$1.8,180.0,60.0,6.0,6.0,4.0,no-si,nosi,1.0,0.0,{},1645221005124.0,1645221005124.0,1306.0,1306.0,0.424,0.882,1645220662737.0,1645221006430.0,,,,,,,,1,,,,,,,,,,True,True,False,False,False,False,False,False,False,False,True,0.0,1.0,0.0,0.0,1.0,2.0,"{'ke': 1.0, 'si': 2.0, 'hu': 3.0, 'no': 4.0}",4-2,4-2,2.0,0.2205,0.6445,5,343693.0,10.0,20.0,20.0,20.0,0.5,1.6666666666666667
1981,2420,62101494e670ba66f0c1da18,run1,quiz,True,31.0,,,,31.0,61df8999cc7c1c6984f5f11d,621012bd5867f8541228a3f2,$1.86,186.0,62.0,8.0,8.0,4.0,si-no,sino,1.0,0.0,{},1645221010301.0,1645221010301.0,1343.0,1343.0,0.52,0.823,1645220662737.0,1645221011644.0,,,,,,,,1,,,,,,,,,,True,True,False,False,False,False,False,False,False,False,True,0.0,0.0,1.0,0.0,1.0,3.0,"{'ke': 1.0, 'si': 2.0, 'hu': 3.0, 'no': 4.0}",2-4,2-4,2.0,0.20575,0.72575,3,348907.0,10.0,21.0,21.0,21.0,0.3,2.5
2009,2461,6210164fe670ba66f0c1da45,run1,quiz,False,32.0,,,,32.0,61df8999cc7c1c6984f5f11d,621015cc4f0a63b56a99484a,$0.59,59.0,20.0,6.0,6.0,4.0,su-no,suno,1.0,0.0,{},1645221452818.0,1645221452818.0,2675.0,2675.0,0.531,2.144,1645221371572.0,1645221455493.0,,,,,,,,1,,,,,,,,,,True,True,False,False,False,False,False,False,False,False,True,0.0,1.0,0.0,0.0,1.0,2.0,"{'ki': 1.0, 'no': 2.0, 'ha': 3.0, 'su': 4.0}",4-2,4-2,2.0,0.536,1.0670000000000002,0,83921.0,,3.0,3.0,3.0,,
2021,2474,62101664e670ba66f0c1da52,run1,quiz,False,32.0,,,,32.0,61df8999cc7c1c6984f5f11d,621015cc4f0a63b56a99484a,$0.74,74.0,26.0,6.0,6.0,4.0,su-no,noha,0.0,0.0,{},1645221471376.0,1645221471376.0,4861.0,4861.0,1.02,3.841,1645221371572.0,1645221476237.0,,,,,,,,1,,,,,,,,,,True,True,False,False,False,False,False,False,False,False,True,0.0,1.0,0.0,0.0,1.0,2.0,"{'ki': 1.0, 'no': 2.0, 'ha': 3.0, 'su': 4.0}",2-3,4-2,2.0,0.96025,1.98025,1,104665.0,6.0,5.0,5.0,5.0,0.16666666666666666,3.0
2037,2498,62101684e670ba66f0c1da6a,run1,quiz,False,32.0,,,,32.0,61df8999cc7c1c6984f5f11d,621015cc4f0a63b56a99484a,$0.91,91.0,33.0,6.0,6.0,4.0,su-no,noha,0.0,0.0,{},1645221506983.0,1645221506983.0,1310.0,1310.0,0.285,1.025,1645221371572.0,1645221508293.0,,,,,,,,1,,,,,,,,,,True,True,False,False,False,False,False,False,False,False,True,0.0,1.0,0.0,0.0,1.0,2.0,"{'ki': 1.0, 'no': 2.0, 'ha': 3.0, 'su': 4.0}",2-3,4-2,2.0,0.25625,0.54125,2,136721.0,7.0,8.0,8.0,8.0,0.2857142857142857,2.3333333333333335
2053,2521,6210169ce670ba66f0c1da81,run1,quiz,False,33.0,,,,33.0,61df8999cc7c1c6984f5f11d,621015db1a0da2ea051c5470,$0.81,81.0,27.0,7.0,7.0,5.0,nu-so,nuso,1.0,0.0,{},1645221529565.0,1645221529565.0,2626.0,2626.0,1.459,1.167,1645221415539.0,1645221532191.0,,,,,,,,1,,,,,,,,,,True,True,False,False,False,False,False,False,False,False,True,0.0,1.0,0.0,0.0,1.0,2.0,"{'hi': 1.0, 'so': 2.0, 'ke': 3.0, 'ta': 4.0, 'nu': 5.0}",5-2,5-2,2.0,0.29175,1.75075,0,116652.0,,3.0,3.0,3.0,,
2057,2526,621016a0e670ba66f0c1da86,run1,quiz,False,32.0,,,,32.0,61df8999cc7c1c6984f5f11d,621015cc4f0a63b56a99484a,$0.96,96.0,35.0,8.0,8.0,4.0,no-su,nosu,1.0,0.0,{},1645221533783.0,1645221533783.0,2766.0,2766.0,1.838,0.928,1645221371572.0,1645221536549.0,,,,,,,,1,,,,,,,,,,True,True,False,False,False,False,False,False,False,False,True,0.0,0.0,1.0,0.0,1.0,3.0,"{'ki': 1.0, 'no': 2.0, 'ha': 3.0, 'su': 4.0}",2-4,2-4,2.0,0.232,2.0700000000000003,0,164977.0,,9.0,9.0,9.0,,
2071,2541,621016abe670ba66f0c1da95,run1,quiz,False,33.0,,,,33.0,61df8999cc7c1c6984f5f11d,621015db1a0da2ea051c5470,$1.02,102.0,34.0,7.0,7.0,5.0,nu-so,nuso,1.0,0.0,{},1645221546342.0,1645221546342.0,1353.0,1353.0,0.369,0.984,1645221415539.0,1645221547696.0,,,,,,,,1,,,,,,,,,,True,True,False,False,False,False,False,False,False,False,True,0.0,1.0,0.0,0.0,1.0,2.0,"{'hi': 1.0, 'so': 2.0, 'ke': 3.0, 'ta': 4.0, 'nu': 5.0}",5-2,5-2,2.0,0.246,0.615,1,132157.0,7.0,5.0,5.0,5.0,0.14285714285714285,3.5
2074,2544,621016b0e670ba66f0c1da98,run1,quiz,False,32.0,,,,32.0,61df8999cc7c1c6984f5f11d,621015cc4f0a63b56a99484a,$1.11,111.0,41.0,6.0,6.0,4.0,su-no,noha,0.0,0.0,{},1645221549919.0,1645221549919.0,2638.0,2638.0,1.478,1.16,1645221371572.0,1645221552557.0,,,,,,,,1,,,,,,,,,,True,True,False,False,False,False,False,False,False,False,True,0.0,1.0,0.0,0.0,1.0,2.0,"{'ki': 1.0, 'no': 2.0, 'ha': 3.0, 'su': 4.0}",2-3,4-2,2.0,0.29,1.768,3,180985.0,8.0,11.0,11.0,11.0,0.375,2.0
2085,2559,621016bee670ba66f0c1daa7,run1,quiz,False,32.0,,,,32.0,61df8999cc7c1c6984f5f11d,621015cc4f0a63b56a99484a,$1.15,115.0,43.0,8.0,8.0,4.0,no-su,noha,0.0,0.0,{},1645221562031.0,1645221562031.0,4462.0,4462.0,2.909,1.553,1645221371572.0,1645221566493.0,,,,,,,,1,,,,,,,,,,True,True,False,False,False,False,False,False,False,False,True,0.0,0.0,1.0,0.0,1.0,3.0,"{'ki': 1.0, 'no': 2.0, 'ha': 3.0, 'su': 4.0}",2-3,2-4,2.0,0.38825,3.29725,1,194921.0,8.0,12.0,12.0,12.0,0.125,4.0
2088,2563,621016c6e670ba66f0c1daab,run1,quiz,False,33.0,,,,33.0,61df8999cc7c1c6984f5f11d,621015db1a0da2ea051c5470,$1.26,126.0,42.0,7.0,7.0,5.0,nu-so,nuso,1.0,0.0,{},1645221572106.0,1645221572106.0,1826.0,1826.0,0.464,1.362,1645221415539.0,1645221573933.0,,,,,,,,1,,,,,,,,,,True,True,False,False,False,False,False,False,False,False,True,0.0,1.0,0.0,0.0,1.0,2.0,"{'hi': 1.0, 'so': 2.0, 'ke': 3.0, 'ta': 4.0, 'nu': 5.0}",5-2,5-2,2.0,0.3405,0.8045,2,158394.0,8.0,8.0,8.0,8.0,0.25,2.6666666666666665
2109,2591,621016e0e670ba66f0c1dac7,run1,quiz,False,33.0,,,,33.0,61df8999cc7c1c6984f5f11d,621015db1a0da2ea051c5470,$1.53,153.0,51.0,7.0,7.0,5.0,nu-so,nuso,1.0,0.0,{},1645221598623.0,1645221598623.0,1671.0,1671.0,0.579,1.092,1645221415539.0,1645221600294.0,,,,,,,,1,,,,,,,,,,True,True,False,False,False,False,False,False,False,False,True,0.0,1.0,0.0,0.0,1.0,2.0,"{'hi': 1.0, 'so': 2.0, 'ke': 3.0, 'ta': 4.0, 'nu': 5.0}",5-2,5-2,2.0,0.273,0.852,3,184755.0,9.0,12.0,12.0,12.0,0.3333333333333333,2.25
2110,2592,621016e1e670ba66f0c1dac8,run1,quiz,False,34.0,,,,34.0,61df8999cc7c1c6984f5f11d,62101620bfbb99460099a9fe,$0.6,60.0,20.0,6.0,6.0,4.0,so-hi,sohi,1.0,0.0,{},1645221603290.0,1645221603290.0,2338.0,2338.0,0.923,1.415,1645221460508.0,1645221605629.0,,,,,,,,1,,,,,,,,,,True,True,False,False,False,False,False,False,False,False,True,0.0,1.0,0.0,0.0,1.0,2.0,"{'ta': 1.0, 'hi': 2.0, 'ku': 3.0, 'so': 4.0}",4-2,4-2,2.0,0.35375,1.27675,0,145121.0,,3.0,3.0,3.0,,
2126,2609,621016efe670ba66f0c1dad9,run1,quiz,False,32.0,,,,32.0,61df8999cc7c1c6984f5f11d,621015cc4f0a63b56a99484a,$1.33,133.0,50.0,6.0,6.0,4.0,su-no,hasu,0.0,0.0,{},1645221609407.0,1645221609407.0,5726.0,5726.0,4.022,1.704,1645221371572.0,1645221615133.0,,,,,,,,1,,,,,,,,,,True,True,False,False,False,False,False,False,False,False,True,0.0,1.0,0.0,0.0,1.0,2.0,"{'ki': 1.0, 'no': 2.0, 'ha': 3.0, 'su': 4.0}",3-4,4-2,2.0,0.426,4.448,4,243561.0,9.0,15.0,15.0,15.0,0.4444444444444444,1.8
2129,2615,621016f6e670ba66f0c1dadf,run1,quiz,False,34.0,,,,34.0,61df8999cc7c1c6984f5f11d,62101620bfbb99460099a9fe,$0.78,78.0,26.0,6.0,6.0,4.0,so-hi,sohi,1.0,0.0,{},1645221624288.0,1645221624288.0,2326.0,2326.0,0.791,1.535,1645221460508.0,1645221626614.0,,,,,,,,1,,,,,,,,,,True,True,False,False,False,False,False,False,False,False,True,0.0,1.0,0.0,0.0,1.0,2.0,"{'ta': 1.0, 'hi': 2.0, 'ku': 3.0, 'so': 4.0}",4-2,4-2,2.0,0.38375,1.17475,1,166106.0,6.0,5.0,5.0,5.0,0.16666666666666666,3.0
2130,2616,621016f8e670ba66f0c1dae0,run1,quiz,False,33.0,,,,33.0,61df8999cc7c1c6984f5f11d,621015db1a0da2ea051c5470,$1.62,162.0,54.0,0.0,10.0,5.0,so-nu,sonu,1.0,0.0,{},1645221622321.0,1645221622321.0,2100.0,2100.0,1.357,0.743,1645221415539.0,1645221624421.0,,,,,,,,1,,,,,,,,,,True,True,False,False,False,False,False,False,False,False,True,0.0,0.0,1.0,0.0,1.0,3.0,"{'hi': 1.0, 'so': 2.0, 'ke': 3.0, 'ta': 4.0, 'nu': 5.0}",2-5,2-5,2.0,0.18575,1.54275,0,208882.0,,14.0,14.0,14.0,,
2145,2636,62101707e670ba66f0c1daf4,run1,quiz,True,33.0,,,,33.0,61df8999cc7c1c6984f5f11d,621015db1a0da2ea051c5470,$1.83,183.0,61.0,7.0,7.0,5.0,nu-so,nuso,1.0,0.0,{},1645221636971.0,1645221636971.0,2390.0,2390.0,0.339,2.051,1645221415539.0,1645221639361.0,,,,,,,,1,,,,,,,,,,True,True,False,False,False,False,False,False,False,False,True,0.0,1.0,0.0,0.0,1.0,2.0,"{'hi': 1.0, 'so': 2.0, 'ke': 3.0, 'ta': 4.0, 'nu': 5.0}",5-2,5-2,2.0,0.51275,0.85175,4,223822.0,10.0,16.0,16.0,16.0,0.4,2.0
2147,2638,62101708e670ba66f0c1daf6,run1,quiz,False,32.0,,,,32.0,61df8999cc7c1c6984f5f11d,621015cc4f0a63b56a99484a,$1.35,135.0,52.0,8.0,8.0,4.0,no-su,hasu,0.0,0.0,{},1645221636232.0,1645221636232.0,4421.0,4421.0,3.564,0.857,1645221371572.0,1645221640653.0,,,,,,,,1,,,,,,,,,,True,True,False,False,False,False,False,False,False,False,True,0.0,0.0,1.0,0.0,1.0,3.0,"{'ki': 1.0, 'no': 2.0, 'ha': 3.0, 'su': 4.0}",3-4,2-4,2.0,0.21425,3.77825,2,269081.0,9.0,16.0,16.0,16.0,0.2222222222222222,3.0
2154,2647,6210170fe670ba66f0c1daff,run1,quiz,True,33.0,,,,33.0,61df8999cc7c1c6984f5f11d,621015db1a0da2ea051c5470,$1.89,189.0,64.0,10.0,10.0,5.0,so-nu,suno,0.0,0.0,{},1645221644667.0,1645221644667.0,2447.0,2447.0,1.167,1.28,1645221415539.0,1645221647114.0,,,,,,,,1,,,,,,,,,,True,True,False,False,False,False,False,False,False,False,True,0.0,0.0,1.0,0.0,1.0,3.0,"{'hi': 1.0, 'so': 2.0, 'ke': 3.0, 'ta': 4.0, 'nu': 5.0}",suno,2-5,2.0,0.32,1.487,1,231575.0,10.0,18.0,18.0,18.0,0.1,5.0
2159,2652,62101714e670ba66f0c1db04,run1,quiz,False,34.0,,,,34.0,61df8999cc7c1c6984f5f11d,62101620bfbb99460099a9fe,$0.99,99.0,33.0,6.0,6.0,4.0,so-hi,sohi,1.0,0.0,{},1645221653049.0,1645221653049.0,3346.0,3346.0,1.977,1.369,1645221460508.0,1645221656395.0,,,,,,,,1,,,,,,,,,,True,True,False,False,False,False,False,False,False,False,True,0.0,1.0,0.0,0.0,1.0,2.0,"{'ta': 1.0, 'hi': 2.0, 'ku': 3.0, 'so': 4.0}",4-2,4-2,2.0,0.34225,2.3192500000000003,2,195887.0,7.0,8.0,8.0,8.0,0.2857142857142857,2.3333333333333335
2168,2665,62101727e670ba66f0c1db11,run1,quiz,False,34.0,,,,34.0,61df8999cc7c1c6984f5f11d,62101620bfbb99460099a9fe,$1.05,105.0,35.0,8.0,8.0,4.0,hi-so,hiso,1.0,0.0,{},1645221671909.0,1645221671909.0,3408.0,3408.0,2.435,0.973,1645221460508.0,1645221675317.0,,,,,,,,1,,,,,,,,,,True,True,False,False,False,False,False,False,False,False,True,0.0,0.0,1.0,0.0,1.0,3.0,"{'ta': 1.0, 'hi': 2.0, 'ku': 3.0, 'so': 4.0}",2-4,2-4,2.0,0.24325,2.67825,0,214809.0,,9.0,9.0,9.0,,
