,Unnamed: 0,_id,iterationName,phase,finalCount,GID,workerID,assignmentID,hitID,prolificID,studyID,sessionID,score,totalScore,trial,sectionTrial,num,base,targ,resp,correct,take,distractions,trialStartTime,takeStartTime,trialTime,takeTime,RT,WT,initTime,endTime,gender,age,comments,understood,totalLength,strategy,strategy_other,expt,cond,targetWord,targetNum,responseSide,responseNumber,responseWord,otherNumber,otherWord,missed,syntax,count,duplicate,failedGame,nonsenseGame,failedOutlier,distracted,distractedGame,manualExclude,incomplete,generalized,prim,add,mult,exp,feature_sum,maxrule,lexicon,gloss,targ_gloss,numSyls,normedWT,CT,freq,elapsedTime,delay,ppd,dpp
34,15290,63cd83c358c4334a66b044d3,run1,quiz,False,193.0,,,,193.0,63cc988c2a276a3b63c222e6,63cd82d586100bcee1422586,$1.02,1.02,34.0,6.0,7.0,5.0,hu-na,huna,1.0,0.0,{},1674412992868.0,1674412992868.0,3018.0,3018.0,0.372,2.646,1674412829191.0,1674412995886.0,,,,,,,,2,control,,,,,,,,,True,True,False,False,False,False,False,False,False,False,True,0.0,1.0,0.0,0.0,1.0,2.0,"{'ko': 1.0, 'na': 2.0, 'te': 3.0, 'si': 4.0, 'hu': 5.0}",5-2,5-2,2.0,0.6615,1.0335,0,166695.0,,,
45,15311,63cd83e558c4334a66b044f1,run1,quiz,False,193.0,,,,193.0,63cc988c2a276a3b63c222e6,63cd82d586100bcee1422586,$1.26,1.26,42.0,6.0,7.0,5.0,hu-na,huna,1.0,0.0,{},1674413026351.0,1674413026351.0,2707.0,2707.0,0.297,2.41,1674412829191.0,1674413029058.0,,,,,,,,2,control,,,,,,,,,True,True,False,False,False,False,False,False,False,False,True,0.0,1.0,0.0,0.0,1.0,2.0,"{'ko': 1.0, 'na': 2.0, 'te': 3.0, 'si': 4.0, 'hu': 5.0}",5-2,5-2,2.0,0.6025,0.8995,1,199867.0,7.0,0.14285714285714285,3.5
59,15335,63cd840458c4334a66b04513,run1,quiz,False,194.0,,,,194.0,63cc988c2a276a3b63c222e6,63cd82c14591a1ba4aae1fd5,$0.49,0.49,22.0,0.0,7.0,5.0,ki-hu,hiku,0.0,0.0,{},1674413057815.0,1674413057815.0,2884.0,2884.0,1.559,1.325,1674412833937.0,1674413060699.0,,,,,,,,2,no_count,,,,,,,,,True,False,False,False,False,False,False,False,False,False,True,0.0,1.0,0.0,0.0,1.0,2.0,"{'te': 4.0, 'na': 1.0, 'ki': 5.0, 'hu': 2.0, 'so': 3.0}",hiku,5-2,2.0,0.33125,1.89025,0,226762.0,,,
60,15336,63cd840658c4334a66b04516,run1,quiz,False,193.0,,,,193.0,63cc988c2a276a3b63c222e6,63cd82d586100bcee1422586,$1.53,1.53,51.0,6.0,7.0,5.0,hu-na,huna,1.0,0.0,{},1674413060152.0,1674413060152.0,2962.0,2962.0,0.88,2.082,1674412829191.0,1674413063114.0,,,,,,,,2,control,,,,,,,,,True,True,False,False,False,False,False,False,False,False,True,0.0,1.0,0.0,0.0,1.0,2.0,"{'ko': 1.0, 'na': 2.0, 'te': 3.0, 'si': 4.0, 'hu': 5.0}",5-2,5-2,2.0,0.5205,1.4005,2,233923.0,8.0,0.25,2.6666666666666665
66,15344,63cd841058c4334a66b04521,run1,quiz,False,194.0,,,,194.0,63cc988c2a276a3b63c222e6,63cd82c14591a1ba4aae1fd5,$0.49,0.49,23.0,1.0,7.0,5.0,ki-hu,hiku,0.0,0.0,{},1674413069350.0,1674413069350.0,3493.0,3493.0,2.101,1.392,1674412833937.0,1674413072843.0,,,,,,,,2,no_count,,,,,,,,,True,False,False,False,False,False,False,False,False,False,True,0.0,1.0,0.0,0.0,1.0,2.0,"{'te': 4.0, 'na': 1.0, 'ki': 5.0, 'hu': 2.0, 'so': 3.0}",hiku,5-2,2.0,0.348,2.449,1,238906.0,,,
69,15351,63cd841b58c4334a66b0452b,run1,quiz,False,195.0,,,,195.0,63cc988c2a276a3b63c222e6,63cd82d3d1db04dd3a8b1a7e,$0.62,0.62,21.0,5.0,7.0,5.0,hu-na,huna,1.0,0.0,{},1674413076966.0,1674413076966.0,7407.0,7407.0,2.398,5.009,1674412935900.0,1674413084373.0,,,,,,,,2,no_count,,,,,,,,,True,False,False,False,False,False,False,False,False,False,True,0.0,1.0,0.0,0.0,1.0,2.0,"{'se': 4.0, 'ki': 1.0, 'na': 2.0, 'to': 3.0, 'hu': 5.0}",5-2,5-2,2.0,1.25225,3.65025,0,148473.0,,,
79,15364,63cd842b58c4334a66b0453d,run1,quiz,True,193.0,,,,193.0,63cc988c2a276a3b63c222e6,63cd82d586100bcee1422586,$1.83,1.83,61.0,6.0,7.0,5.0,hu-na,huna,1.0,0.0,{},1674413098423.0,1674413098423.0,1656.0,1656.0,0.32,1.336,1674412829191.0,1674413100079.0,,,,,,,,2,control,,,,,,,,,True,True,False,False,False,False,False,False,False,False,True,0.0,1.0,0.0,0.0,1.0,2.0,"{'ko': 1.0, 'na': 2.0, 'te': 3.0, 'si': 4.0, 'hu': 5.0}",5-2,5-2,2.0,0.334,0.654,3,270888.0,9.0,0.3333333333333333,2.25
80,15365,63cd842c58c4334a66b0453e,run1,quiz,False,195.0,,,,195.0,63cc988c2a276a3b63c222e6,63cd82d3d1db04dd3a8b1a7e,$0.73,0.73,25.0,3.0,7.0,5.0,hu-na,huna,1.0,0.0,{},1674413096823.0,1674413096823.0,3693.0,3693.0,2.629,1.064,1674412935900.0,1674413100516.0,,,,,,,,2,no_count,,,,,,,,,True,False,False,False,False,False,False,False,False,False,True,0.0,1.0,0.0,0.0,1.0,2.0,"{'se': 4.0, 'ki': 1.0, 'na': 2.0, 'to': 3.0, 'hu': 5.0}",5-2,5-2,2.0,0.266,2.895,1,164616.0,3.0,0.3333333333333333,1.5
86,15372,63cd843458c4334a66b04549,run1,quiz,True,193.0,,,,193.0,63cc988c2a276a3b63c222e6,63cd82d586100bcee1422586,$1.92,1.92,64.0,0.0,10.0,5.0,na-hu,nahu,1.0,0.0,{},1674413107575.0,1674413107575.0,1531.0,1531.0,0.314,1.217,1674412829191.0,1674413109106.0,,,,,,,,2,control,,,,,,,,,True,True,False,False,False,False,False,False,False,False,True,0.0,0.0,1.0,0.0,1.0,3.0,"{'ko': 1.0, 'na': 2.0, 'te': 3.0, 'si': 4.0, 'hu': 5.0}",2-5,2-5,2.0,0.30425,0.61825,0,279915.0,,,
87,15375,63cd843a58c4334a66b0454d,run1,quiz,False,194.0,,,,194.0,63cc988c2a276a3b63c222e6,63cd82c14591a1ba4aae1fd5,$0.5,0.5,26.0,4.0,7.0,5.0,ki-hu,hiku,0.0,0.0,{},1674413110869.0,1674413110869.0,4029.0,4029.0,2.658,1.371,1674412833937.0,1674413114898.0,,,,,,,,2,no_count,,,,,,,,,True,False,False,False,False,False,False,False,False,False,True,0.0,1.0,0.0,0.0,1.0,2.0,"{'te': 4.0, 'na': 1.0, 'ki': 5.0, 'hu': 2.0, 'so': 3.0}",hiku,5-2,2.0,0.34275,3.00075,2,280961.0,3.0,0.6666666666666666,1.0
95,15386,63cd844f58c4334a66b0455f,run1,quiz,False,194.0,,,,194.0,63cc988c2a276a3b63c222e6,63cd82c14591a1ba4aae1fd5,$0.56,0.56,28.0,0.0,7.0,5.0,ki-hu,kihu,1.0,0.0,{},1674413131560.0,1674413131560.0,3742.0,3742.0,2.529,1.213,1674412833937.0,1674413135302.0,,,,,,,,2,no_count,,,,,,,,,True,False,False,False,False,False,False,False,False,False,True,0.0,1.0,0.0,0.0,1.0,2.0,"{'te': 4.0, 'na': 1.0, 'ki': 5.0, 'hu': 2.0, 'so': 3.0}",5-2,5-2,2.0,0.30325,2.83225,3,301365.0,2.0,1.5,0.5
114,15411,63cd848258c4334a66b0457d,run1,quiz,False,195.0,,,,195.0,63cc988c2a276a3b63c222e6,63cd82d3d1db04dd3a8b1a7e,$1.37,1.37,47.0,1.0,7.0,5.0,hu-na,huna,1.0,0.0,{},1674413183208.0,1674413183208.0,4149.0,4149.0,1.004,3.145,1674412935900.0,1674413187357.0,,,,,,,,2,no_count,,,,,,,,,True,False,False,False,False,False,False,False,False,False,True,0.0,1.0,0.0,0.0,1.0,2.0,"{'se': 4.0, 'ki': 1.0, 'na': 2.0, 'to': 3.0, 'hu': 5.0}",5-2,5-2,2.0,0.78625,1.79025,2,251457.0,18.0,0.1111111111111111,6.0
130,15456,63cd84c358c4334a66b045ab,run1,quiz,True,195.0,,,,195.0,63cc988c2a276a3b63c222e6,63cd82d3d1db04dd3a8b1a7e,$1.64,1.64,56.0,0.0,10.0,5.0,na-hu,nahu,1.0,0.0,{},1674413249990.0,1674413249990.0,2183.0,2183.0,1.126,1.057,1674412935900.0,1674413252173.0,,,,,,,,2,no_count,,,,,,,,,True,False,False,False,False,False,False,False,False,False,True,0.0,0.0,1.0,0.0,1.0,3.0,"{'se': 4.0, 'ki': 1.0, 'na': 2.0, 'to': 3.0, 'hu': 5.0}",2-5,2-5,2.0,0.26425,1.39025,0,316273.0,,,
137,15477,63cd84d858c4334a66b045c0,run1,quiz,False,194.0,,,,194.0,63cc988c2a276a3b63c222e6,63cd82c14591a1ba4aae1fd5,$0.78,0.78,43.0,0.0,10.0,5.0,hu-ki,hikin,0.0,0.0,{},1674413268912.0,1674413268912.0,3586.0,3586.0,1.767,1.819,1674412833937.0,1674413272498.0,,,,,,,,2,no_count,,,,,,,,,True,False,False,False,False,False,False,False,False,False,True,0.0,0.0,1.0,0.0,1.0,3.0,"{'te': 4.0, 'na': 1.0, 'ki': 5.0, 'hu': 2.0, 'so': 3.0}",hi-5-n,2-5,2.0,0.3638,2.1308,0,438561.0,,,
140,15486,63cd84e458c4334a66b045c9,run1,quiz,True,195.0,,,,195.0,63cc988c2a276a3b63c222e6,63cd82d3d1db04dd3a8b1a7e,$1.88,1.88,64.0,0.0,7.0,5.0,hu-na,huna,1.0,0.0,{},1674413281981.0,1674413281981.0,3560.0,3560.0,1.743,1.817,1674412935900.0,1674413285541.0,,,,,,,,2,no_count,,,,,,,,,True,False,False,False,False,False,False,False,False,False,True,0.0,1.0,0.0,0.0,1.0,2.0,"{'se': 4.0, 'ki': 1.0, 'na': 2.0, 'to': 3.0, 'hu': 5.0}",5-2,5-2,2.0,0.45425,2.19725,3,349641.0,15.0,0.2,3.75
171,15685,63cd8bd958c4334a66b047c4,run1,quiz,False,196.0,,,,196.0,63cc988c2a276a3b63c222e6,63cd8a33aec0ccabcf0f9ba9,$0.57,0.57,19.0,2.0,7.0,5.0,to-na,tona,1.0,0.0,{},1674415061025.0,1674415061025.0,6317.0,6317.0,2.919,3.398,1674414847191.0,1674415067342.0,,,,,,,,2,no_count,,,,,,,,,True,False,False,False,False,False,False,False,False,False,True,0.0,1.0,0.0,0.0,1.0,2.0,"{'si': 4.0, 'ke': 1.0, 'to': 5.0, 'hu': 3.0, 'na': 2.0}",5-2,5-2,2.0,0.8495,3.7685,0,220151.0,,,
183,15700,63cd8c3958c4334a66b047d3,run1,quiz,False,196.0,,,,196.0,63cc988c2a276a3b63c222e6,63cd8a33aec0ccabcf0f9ba9,$0.95,0.95,32.0,2.0,7.0,5.0,to-na,tona,1.0,0.0,{},1674415157024.0,1674415157024.0,6160.0,6160.0,1.727,4.433,1674414847191.0,1674415163184.0,,,,,,,,2,no_count,,,,,,,,,True,False,False,False,False,False,False,False,False,False,True,0.0,1.0,0.0,0.0,1.0,2.0,"{'si': 4.0, 'ke': 1.0, 'to': 5.0, 'hu': 3.0, 'na': 2.0}",5-2,5-2,2.0,1.10825,2.8352500000000003,1,315993.0,12.0,0.08333333333333333,6.0
188,15705,63cd8c5858c4334a66b047d8,run1,quiz,False,196.0,,,,196.0,63cc988c2a276a3b63c222e6,63cd8a33aec0ccabcf0f9ba9,$1.1,1.1,37.0,7.0,10.0,5.0,na-to,nato,1.0,0.0,{},1674415184364.0,1674415184364.0,9976.0,9976.0,7.275,2.701,1674414847191.0,1674415194340.0,,,,,,,,2,no_count,,,,,,,,,True,False,False,False,False,False,False,False,False,False,True,0.0,0.0,1.0,0.0,1.0,3.0,"{'si': 4.0, 'ke': 1.0, 'to': 5.0, 'hu': 3.0, 'na': 2.0}",2-5,2-5,2.0,0.67525,7.95025,0,347149.0,,,
204,15721,63cd8cab58c4334a66b047e8,run1,quiz,False,196.0,,,,196.0,63cc988c2a276a3b63c222e6,63cd8a33aec0ccabcf0f9ba9,$1.58,1.58,53.0,6.0,7.0,5.0,to-na,tona,1.0,0.0,{},1674415272419.0,1674415272419.0,5362.0,5362.0,2.209,3.153,1674414847191.0,1674415277781.0,,,,,,,,2,no_count,,,,,,,,,True,False,False,False,False,False,False,False,False,False,True,0.0,1.0,0.0,0.0,1.0,2.0,"{'si': 4.0, 'ke': 1.0, 'to': 5.0, 'hu': 3.0, 'na': 2.0}",5-2,5-2,2.0,0.78825,2.99725,2,430590.0,20.0,0.1,6.666666666666667
211,15728,63cd8cd058c4334a66b047ef,run1,quiz,True,196.0,,,,196.0,63cc988c2a276a3b63c222e6,63cd8a33aec0ccabcf0f9ba9,$1.79,1.79,60.0,3.0,7.0,5.0,to-na,tona,1.0,0.0,{},1674415309600.0,1674415309600.0,5081.0,5081.0,1.608,3.473,1674414847191.0,1674415314681.0,,,,,,,,2,no_count,,,,,,,,,True,False,False,False,False,False,False,False,False,False,True,0.0,1.0,0.0,0.0,1.0,2.0,"{'si': 4.0, 'ke': 1.0, 'to': 5.0, 'hu': 3.0, 'na': 2.0}",5-2,5-2,2.0,0.86825,2.4762500000000003,3,467490.0,5.0,0.6,1.25
242,15858,63cd915458c4334a66b048a5,run1,quiz,False,199.0,,,,199.0,63cc988c2a276a3b63c222e6,63cd90befec356cac6a7ae7b,$0.12,0.12,5.0,1.0,7.0,5.0,na-su,nasu,1.0,0.0,{},1674416465594.0,1674416465594.0,1955.0,1955.0,1.351,0.604,1674416413741.0,1674416467549.0,,,,,,,,2,no_count,,,,,,,,,True,False,False,False,False,False,False,False,False,False,True,0.0,1.0,0.0,0.0,1.0,2.0,"{'su': 2.0, 'ko': 1.0, 'he': 4.0, 'na': 5.0, 'ti': 3.0}",5-2,5-2,2.0,0.151,1.502,0,53808.0,,,
253,15879,63cd915d58c4334a66b048c2,run1,quiz,False,199.0,,,,199.0,63cc988c2a276a3b63c222e6,63cd90befec356cac6a7ae7b,$0.21,0.21,8.0,1.0,7.0,5.0,na-su,nasu,1.0,0.0,{},1674416474930.0,1674416474930.0,1904.0,1904.0,1.427,0.477,1674416413741.0,1674416476834.0,,,,,,,,2,no_count,,,,,,,,,True,False,False,False,False,False,False,False,False,False,True,0.0,1.0,0.0,0.0,1.0,2.0,"{'su': 2.0, 'ko': 1.0, 'he': 4.0, 'na': 5.0, 'ti': 3.0}",5-2,5-2,2.0,0.11925,1.54625,1,63093.0,3.0,0.3333333333333333,1.5
272,15917,63cd916b58c4334a66b048f8,run1,quiz,False,199.0,,,,199.0,63cc988c2a276a3b63c222e6,63cd90befec356cac6a7ae7b,$0.3,0.3,11.0,0.0,7.0,5.0,na-su,nasu,1.0,0.0,{},1674416489143.0,1674416489143.0,1503.0,1503.0,0.851,0.652,1674416413741.0,1674416490646.0,,,,,,,,2,no_count,,,,,,,,,True,False,False,False,False,False,False,False,False,False,True,0.0,1.0,0.0,0.0,1.0,2.0,"{'su': 2.0, 'ko': 1.0, 'he': 4.0, 'na': 5.0, 'ti': 3.0}",5-2,5-2,2.0,0.163,1.014,2,76905.0,3.0,0.6666666666666666,1.0
320,16018,63cd918a58c4334a66b04980,run1,quiz,False,199.0,,,,199.0,63cc988c2a276a3b63c222e6,63cd90befec356cac6a7ae7b,$0.54,0.54,19.0,2.0,7.0,5.0,na-su,nasu,1.0,0.0,{},1674416519731.0,1674416519731.0,1503.0,1503.0,0.964,0.539,1674416413741.0,1674416521234.0,,,,,,,,2,no_count,,,,,,,,,True,False,False,False,False,False,False,False,False,False,True,0.0,1.0,0.0,0.0,1.0,2.0,"{'su': 2.0, 'ko': 1.0, 'he': 4.0, 'na': 5.0, 'ti': 3.0}",5-2,5-2,2.0,0.13475,1.09875,3,107493.0,4.0,0.75,1.0
324,16028,63cd918c58c4334a66b0498c,run1,quiz,False,197.0,,,,197.0,63cc988c2a276a3b63c222e6,63cd90bf29f960a6dfa33969,$1,1.0,34.0,6.0,7.0,5.0,hi-su,hisu,1.0,0.0,{},1674416523394.0,1674416523394.0,1489.0,1489.0,0.337,1.152,1674416405952.0,1674416524883.0,,,,,,,,2,no_syntax,,,,,,,,,False,True,False,False,False,False,False,False,False,False,True,0.0,1.0,0.0,0.0,1.0,2.0,"{'su': 1.0, 'ka': 2.0, 'hi-no': 3.0, 'hi-ka': 4.0, 'hi': 5.0, 'no': 6.0, 'hi-su': 7.0, 'te': 8.0, 'no-hi': 9.0, 'hi-te': 10.0}",7,5-1,2.0,0.288,0.625,0,118931.0,,,
344,16076,63cd919b58c4334a66b049d3,run1,quiz,False,201.0,,,,201.0,63cc988c2a276a3b63c222e6,63cd90c104ce9aaee32c8ab4,$0.98,0.98,34.0,6.0,7.0,5.0,ko-ni,koni,1.0,0.0,{},1674416537383.0,1674416537383.0,3028.0,3028.0,2.059,0.969,1674416412339.0,1674416540411.0,,,,,,,,2,control,,,,,,,,,True,True,False,False,False,False,False,False,False,False,True,0.0,1.0,0.0,0.0,1.0,2.0,"{'tu': 1.0, 'ni': 2.0, 'sa': 3.0, 'he': 4.0, 'ko': 5.0}",5-2,5-2,2.0,0.24225,2.30125,0,128072.0,,,
347,16085,63cd919d58c4334a66b049df,run1,quiz,False,206.0,,,,206.0,63cc988c2a276a3b63c222e6,63cd90c4250365c43225b031,$0.24,0.24,8.0,0.0,7.0,5.0,ti-se,tise,1.0,0.0,{},1674416539008.0,1674416539008.0,3072.0,3072.0,1.389,1.683,1674416474987.0,1674416542080.0,,,,,,,,2,no_count,,,,,,,,,True,False,False,False,False,False,False,False,False,False,True,0.0,1.0,0.0,0.0,1.0,2.0,"{'se': 2.0, 'ti': 5.0, 'ho': 4.0, 'ka': 3.0, 'nu': 1.0}",5-2,5-2,2.0,0.42075,1.80975,0,67093.0,,,
356,16104,63cd91a258c4334a66b049fa,run1,quiz,False,198.0,,,,198.0,63cc988c2a276a3b63c222e6,63cd90c30e1b3e2d0512253c,$0.99,0.99,34.0,6.0,7.0,5.0,nu,nu,1.0,0.0,{},1674416545392.0,1674416545392.0,912.0,912.0,0.42,0.492,1674416412601.0,1674416546304.0,,,,,,,,2,no_syntax,,,,,,,,,False,True,False,False,False,False,False,False,False,False,True,0.0,1.0,0.0,0.0,1.0,2.0,"{'se': 1.0, 'se-ko': 2.0, 'se-hi': 3.0, 'ta-se': 4.0, 'se-nu': 5.0, 'ta': 6.0, 'nu': 7.0, 'se-ta': 8.0, 'ko': 9.0, 'hi': 10.0}",7,7,1.0,0.246,0.6659999999999999,0,133703.0,,,
363,16112,63cd91a358c4334a66b04a04,run1,quiz,False,197.0,,,,197.0,63cc988c2a276a3b63c222e6,63cd90bf29f960a6dfa33969,$1.21,1.21,42.0,6.0,7.0,5.0,hi-su,hiso,0.0,0.0,{},1674416546298.0,1674416546298.0,1537.0,1537.0,0.355,1.182,1674416405952.0,1674416547835.0,,,,,,,,2,no_syntax,,,,,,,,,False,True,False,False,False,False,False,False,False,False,True,0.0,1.0,0.0,0.0,1.0,2.0,"{'su': 1.0, 'ka': 2.0, 'hi-no': 3.0, 'hi-ka': 4.0, 'hi': 5.0, 'no': 6.0, 'hi-su': 7.0, 'te': 8.0, 'no-hi': 9.0, 'hi-te': 10.0}",5,5-1,2.0,0.2955,0.6505,1,141883.0,7.0,0.14285714285714285,3.5
388,16155,63cd91ae58c4334a66b04a40,run1,quiz,False,206.0,,,,206.0,63cc988c2a276a3b63c222e6,63cd90c4250365c43225b031,$0.39,0.39,13.0,1.0,7.0,5.0,ti-se,tise,1.0,0.0,{},1674416556568.0,1674416556568.0,1758.0,1758.0,1.042,0.716,1674416474987.0,1674416558326.0,,,,,,,,2,no_count,,,,,,,,,True,False,False,False,False,False,False,False,False,False,True,0.0,1.0,0.0,0.0,1.0,2.0,"{'se': 2.0, 'ti': 5.0, 'ho': 4.0, 'ka': 3.0, 'nu': 1.0}",5-2,5-2,2.0,0.179,1.221,1,83339.0,4.0,0.25,2.0
411,16197,63cd91b858c4334a66b04a7d,run1,quiz,False,198.0,,,,198.0,63cc988c2a276a3b63c222e6,63cd90c30e1b3e2d0512253c,$1.23,1.23,42.0,6.0,7.0,5.0,nu,nu,1.0,0.0,{},1674416567392.0,1674416567392.0,707.0,707.0,0.14,0.567,1674416412601.0,1674416568100.0,,,,,,,,2,no_syntax,,,,,,,,,False,True,False,False,False,False,False,False,False,False,True,0.0,1.0,0.0,0.0,1.0,2.0,"{'se': 1.0, 'se-ko': 2.0, 'se-hi': 3.0, 'ta-se': 4.0, 'se-nu': 5.0, 'ta': 6.0, 'nu': 7.0, 'se-ta': 8.0, 'ko': 9.0, 'hi': 10.0}",7,7,1.0,0.2835,0.4235,1,155499.0,7.0,0.14285714285714285,3.5
426,16226,63cd91bf58c4334a66b04aa6,run1,quiz,False,201.0,,,,201.0,63cc988c2a276a3b63c222e6,63cd90c104ce9aaee32c8ab4,$1.19,1.19,42.0,6.0,7.0,5.0,ko-ni,koni,1.0,0.0,{},1674416572679.0,1674416572679.0,3436.0,3436.0,1.771,1.665,1674416412339.0,1674416576115.0,,,,,,,,2,control,,,,,,,,,True,True,False,False,False,False,False,False,False,False,True,0.0,1.0,0.0,0.0,1.0,2.0,"{'tu': 1.0, 'ni': 2.0, 'sa': 3.0, 'he': 4.0, 'ko': 5.0}",5-2,5-2,2.0,0.41625,2.18725,1,163776.0,7.0,0.14285714285714285,3.5
450,16268,63cd91ca58c4334a66b04ae2,run1,quiz,False,202.0,,,,202.0,63cc988c2a276a3b63c222e6,63cd90bf64f73b22f7d9d73c,$1.02,1.02,34.0,6.0,7.0,5.0,hu,hu,1.0,0.0,{},1674416583660.0,1674416583660.0,891.0,891.0,0.291,0.6,1674416411912.0,1674416584551.0,,,,,,,,2,no_syntax,,,,,,,,,False,True,False,False,False,False,False,False,False,False,True,0.0,1.0,0.0,0.0,1.0,2.0,"{'ki-te': 1.0, 'ki-hu': 2.0, 'na-ki': 3.0, 'ki-so': 4.0, 'ki-na': 5.0, 'te': 6.0, 'hu': 7.0, 'ki': 8.0, 'so': 9.0, 'na': 10.0}",7,7,1.0,0.3,0.591,0,172639.0,,,
453,16273,63cd91cc58c4334a66b04aeb,run1,quiz,False,197.0,,,,197.0,63cc988c2a276a3b63c222e6,63cd90bf29f960a6dfa33969,$1.49,1.49,51.0,6.0,7.0,5.0,hi-su,hisu,1.0,0.0,{},1674416584554.0,1674416584554.0,3935.0,3935.0,2.8,1.135,1674416405952.0,1674416588489.0,,,,,,,,2,no_syntax,,,,,,,,,False,True,False,False,False,False,False,False,False,False,True,0.0,1.0,0.0,0.0,1.0,2.0,"{'su': 1.0, 'ka': 2.0, 'hi-no': 3.0, 'hi-ka': 4.0, 'hi': 5.0, 'no': 6.0, 'hi-su': 7.0, 'te': 8.0, 'no-hi': 9.0, 'hi-te': 10.0}",7,5-1,2.0,0.28375,3.08375,2,182537.0,8.0,0.25,2.6666666666666665
478,16311,63cd91d658c4334a66b04b21,run1,quiz,False,206.0,,,,206.0,63cc988c2a276a3b63c222e6,63cd90c4250365c43225b031,$0.69,0.69,23.0,5.0,7.0,5.0,ti-se,tise,1.0,0.0,{},1674416596145.0,1674416596145.0,2178.0,2178.0,1.164,1.014,1674416474987.0,1674416598323.0,,,,,,,,2,no_count,,,,,,,,,True,False,False,False,False,False,False,False,False,False,True,0.0,1.0,0.0,0.0,1.0,2.0,"{'se': 2.0, 'ti': 5.0, 'ho': 4.0, 'ka': 3.0, 'nu': 1.0}",5-2,5-2,2.0,0.2535,1.4175,2,123336.0,6.0,0.3333333333333333,2.0
487,16323,63cd91d958c4334a66b04b33,run1,quiz,False,198.0,,,,198.0,63cc988c2a276a3b63c222e6,63cd90c30e1b3e2d0512253c,$1.47,1.47,51.0,6.0,7.0,5.0,nu,nu,1.0,0.0,{},1674416600426.0,1674416600426.0,856.0,856.0,0.283,0.573,1674416412601.0,1674416601282.0,,,,,,,,2,no_syntax,,,,,,,,,False,True,False,False,False,False,False,False,False,False,True,0.0,1.0,0.0,0.0,1.0,2.0,"{'se': 1.0, 'se-ko': 2.0, 'se-hi': 3.0, 'ta-se': 4.0, 'se-nu': 5.0, 'ta': 6.0, 'nu': 7.0, 'se-ta': 8.0, 'ko': 9.0, 'hi': 10.0}",7,7,1.0,0.2865,0.5694999999999999,2,188681.0,8.0,0.25,2.6666666666666665
510,16352,63cd91e058c4334a66b04b5e,run1,quiz,False,199.0,,,,199.0,63cc988c2a276a3b63c222e6,63cd90befec356cac6a7ae7b,$1.37,1.37,47.0,0.0,10.0,5.0,su-na,suna,1.0,0.0,{},1674416605795.0,1674416605795.0,1251.0,1251.0,0.763,0.488,1674416413741.0,1674416607046.0,,,,,,,,2,no_count,,,,,,,,,True,False,False,False,False,False,False,False,False,False,True,0.0,0.0,1.0,0.0,1.0,3.0,"{'su': 2.0, 'ko': 1.0, 'he': 4.0, 'na': 5.0, 'ti': 3.0}",2-5,2-5,2.0,0.122,0.885,0,193305.0,,,
522,16367,63cd91e358c4334a66b04b72,run1,quiz,False,202.0,,,,202.0,63cc988c2a276a3b63c222e6,63cd90bf64f73b22f7d9d73c,$1.26,1.26,42.0,6.0,7.0,5.0,hu,hu,1.0,0.0,{},1674416608795.0,1674416608795.0,986.0,986.0,0.501,0.485,1674416411912.0,1674416609781.0,,,,,,,,2,no_syntax,,,,,,,,,False,True,False,False,False,False,False,False,False,False,True,0.0,1.0,0.0,0.0,1.0,2.0,"{'ki-te': 1.0, 'ki-hu': 2.0, 'na-ki': 3.0, 'ki-so': 4.0, 'ki-na': 5.0, 'te': 6.0, 'hu': 7.0, 'ki': 8.0, 'so': 9.0, 'na': 10.0}",7,7,1.0,0.2425,0.7435,1,197869.0,7.0,0.14285714285714285,3.5
530,16381,63cd91e858c4334a66b04b8a,run1,quiz,False,209.0,,,,209.0,63cc988c2a276a3b63c222e6,63cd90c4daa27a66f65b28f4,$0.44,0.44,15.0,3.0,7.0,5.0,sa-he,sahe,1.0,0.0,{},1674416613726.0,1674416613726.0,2275.0,2275.0,1.441,0.834,1674416505404.0,1674416616001.0,,,,,,,,2,no_count,,,,,,,,,True,False,False,False,False,False,False,False,False,False,True,0.0,1.0,0.0,0.0,1.0,2.0,"{'he': 2.0, 'no': 3.0, 'ki': 4.0, 'tu': 1.0, 'sa': 5.0}",5-2,5-2,2.0,0.2085,1.6495,0,110597.0,,,
571,16447,63cd91f758c4334a66b04be3,run1,quiz,False,201.0,,,,201.0,63cc988c2a276a3b63c222e6,63cd90c104ce9aaee32c8ab4,$1.42,1.42,51.0,6.0,7.0,5.0,ko-ni,koni,1.0,0.0,{},1674416629279.0,1674416629279.0,2276.0,2276.0,1.383,0.893,1674416412339.0,1674416631555.0,,,,,,,,2,control,,,,,,,,,True,True,False,False,False,False,False,False,False,False,True,0.0,1.0,0.0,0.0,1.0,2.0,"{'tu': 1.0, 'ni': 2.0, 'sa': 3.0, 'he': 4.0, 'ko': 5.0}",5-2,5-2,2.0,0.22325,1.60625,2,219216.0,8.0,0.25,2.6666666666666665
581,16459,63cd91f958c4334a66b04bf4,run1,quiz,True,197.0,,,,197.0,63cc988c2a276a3b63c222e6,63cd90bf29f960a6dfa33969,$1.78,1.78,61.0,6.0,7.0,5.0,hi-su,hisu,1.0,0.0,{},1674416631434.0,1674416631434.0,2380.0,2380.0,1.202,1.178,1674416405952.0,1674416633814.0,,,,,,,,2,no_syntax,,,,,,,,,False,True,False,False,False,False,False,False,False,False,True,0.0,1.0,0.0,0.0,1.0,2.0,"{'su': 1.0, 'ka': 2.0, 'hi-no': 3.0, 'hi-ka': 4.0, 'hi': 5.0, 'no': 6.0, 'hi-su': 7.0, 'te': 8.0, 'no-hi': 9.0, 'hi-te': 10.0}",7,5-1,2.0,0.2945,1.4965,3,227862.0,9.0,0.3333333333333333,2.25
583,16463,63cd91fa58c4334a66b04bf9,run1,quiz,True,198.0,,,,198.0,63cc988c2a276a3b63c222e6,63cd90c30e1b3e2d0512253c,$1.74,1.74,61.0,6.0,7.0,5.0,nu,nu,1.0,0.0,{},1674416633640.0,1674416633640.0,752.0,752.0,0.13,0.622,1674416412601.0,1674416634392.0,,,,,,,,2,no_syntax,,,,,,,,,False,True,False,False,False,False,False,False,False,False,True,0.0,1.0,0.0,0.0,1.0,2.0,"{'se': 1.0, 'se-ko': 2.0, 'se-hi': 3.0, 'ta-se': 4.0, 'se-nu': 5.0, 'ta': 6.0, 'nu': 7.0, 'se-ta': 8.0, 'ko': 9.0, 'hi': 10.0}",7,7,1.0,0.311,0.441,3,221791.0,9.0,0.3333333333333333,2.25
589,16470,63cd91fc58c4334a66b04c05,run1,quiz,False,206.0,,,,206.0,63cc988c2a276a3b63c222e6,63cd90c4250365c43225b031,$1.14,1.14,38.0,7.0,10.0,5.0,se-ti,seti,1.0,0.0,{},1674416634513.0,1674416634513.0,1937.0,1937.0,1.097,0.84,1674416474987.0,1674416636450.0,,,,,,,,2,no_count,,,,,,,,,True,False,False,False,False,False,False,False,False,False,True,0.0,0.0,1.0,0.0,1.0,3.0,"{'se': 2.0, 'ti': 5.0, 'ho': 4.0, 'ka': 3.0, 'nu': 1.0}",2-5,2-5,2.0,0.21,1.307,0,161463.0,,,
600,16484,63cd91ff58c4334a66b04c19,run1,quiz,False,202.0,,,,202.0,63cc988c2a276a3b63c222e6,63cd90bf64f73b22f7d9d73c,$1.53,1.53,51.0,6.0,7.0,5.0,hu,hu,1.0,0.0,{},1674416636819.0,1674416636819.0,660.0,660.0,0.043,0.617,1674416411912.0,1674416637479.0,,,,,,,,2,no_syntax,,,,,,,,,False,True,False,False,False,False,False,False,False,False,True,0.0,1.0,0.0,0.0,1.0,2.0,"{'ki-te': 1.0, 'ki-hu': 2.0, 'na-ki': 3.0, 'ki-so': 4.0, 'ki-na': 5.0, 'te': 6.0, 'hu': 7.0, 'ki': 8.0, 'so': 9.0, 'na': 10.0}",7,7,1.0,0.3085,0.3515,2,225567.0,8.0,0.25,2.6666666666666665
603,16487,63cd920058c4334a66b04c1f,run1,quiz,True,198.0,,,,198.0,63cc988c2a276a3b63c222e6,63cd90c30e1b3e2d0512253c,$1.83,1.83,64.0,0.0,10.0,5.0,hi,hi,1.0,0.0,{},1674416639400.0,1674416639400.0,678.0,678.0,0.209,0.469,1674416412601.0,1674416640078.0,,,,,,,,2,no_syntax,,,,,,,,,False,True,False,False,False,False,False,False,False,False,True,0.0,0.0,1.0,0.0,1.0,3.0,"{'se': 1.0, 'se-ko': 2.0, 'se-hi': 3.0, 'ta-se': 4.0, 'se-nu': 5.0, 'ta': 6.0, 'nu': 7.0, 'se-ta': 8.0, 'ko': 9.0, 'hi': 10.0}",10,10,1.0,0.2345,0.4435,0,227477.0,,,
608,16494,63cd920158c4334a66b04c29,run1,quiz,False,206.0,,,,206.0,63cc988c2a276a3b63c222e6,63cd90c4250365c43225b031,$1.2,1.2,40.0,1.0,7.0,5.0,ti-se,tise,1.0,0.0,{},1674416640082.0,1674416640082.0,2060.0,2060.0,1.302,0.758,1674416474987.0,1674416642142.0,,,,,,,,2,no_count,,,,,,,,,True,False,False,False,False,False,False,False,False,False,True,0.0,1.0,0.0,0.0,1.0,2.0,"{'se': 2.0, 'ti': 5.0, 'ho': 4.0, 'ka': 3.0, 'nu': 1.0}",5-2,5-2,2.0,0.1895,1.4915,3,167155.0,15.0,0.2,3.75
630,16526,63cd920a58c4334a66b04c55,run1,quiz,True,197.0,,,,197.0,63cc988c2a276a3b63c222e6,63cd90bf29f960a6dfa33969,$1.87,1.87,64.0,0.0,10.0,5.0,hi-te,hite,1.0,0.0,{},1674416638882.0,1674416638882.0,11980.0,11980.0,9.852,2.128,1674416405952.0,1674416650862.0,,,,,,,,2,no_syntax,,,,,,,,,False,True,False,False,False,False,False,False,False,False,True,0.0,0.0,1.0,0.0,1.0,3.0,"{'su': 1.0, 'ka': 2.0, 'hi-no': 3.0, 'hi-ka': 4.0, 'hi': 5.0, 'no': 6.0, 'hi-su': 7.0, 'te': 8.0, 'no-hi': 9.0, 'hi-te': 10.0}",10,5-8,2.0,0.532,10.384,0,244910.0,,,
677,16593,63cd921e58c4334a66b04cb8,run1,quiz,False,209.0,,,,209.0,63cc988c2a276a3b63c222e6,63cd90c4daa27a66f65b28f4,$0.84,0.84,29.0,2.0,7.0,5.0,sa-he,sahe,1.0,0.0,{},1674416668037.0,1674416668037.0,2300.0,2300.0,1.157,1.143,1674416505404.0,1674416670337.0,,,,,,,,2,no_count,,,,,,,,,True,False,False,False,False,False,False,False,False,False,True,0.0,1.0,0.0,0.0,1.0,2.0,"{'he': 2.0, 'no': 3.0, 'ki': 4.0, 'tu': 1.0, 'sa': 5.0}",5-2,5-2,2.0,0.28575,1.44275,1,164933.0,11.0,0.09090909090909091,5.5
694,16617,63cd922558c4334a66b04cdd,run1,quiz,True,202.0,,,,202.0,63cc988c2a276a3b63c222e6,63cd90bf64f73b22f7d9d73c,$1.83,1.83,61.0,6.0,7.0,5.0,hu,hu,1.0,0.0,{},1674416673651.0,1674416673651.0,1627.0,1627.0,0.233,1.394,1674416411912.0,1674416675278.0,,,,,,,,2,no_syntax,,,,,,,,,False,True,False,False,False,False,False,False,False,False,True,0.0,1.0,0.0,0.0,1.0,2.0,"{'ki-te': 1.0, 'ki-hu': 2.0, 'na-ki': 3.0, 'ki-so': 4.0, 'ki-na': 5.0, 'te': 6.0, 'hu': 7.0, 'ki': 8.0, 'so': 9.0, 'na': 10.0}",7,7,1.0,0.697,0.93,3,263366.0,9.0,0.3333333333333333,2.25
697,16620,63cd922558c4334a66b04ce1,run1,quiz,True,201.0,,,,201.0,63cc988c2a276a3b63c222e6,63cd90c104ce9aaee32c8ab4,$1.7,1.7,61.0,6.0,7.0,5.0,ko-ni,koni,1.0,0.0,{},1674416676934.0,1674416676934.0,1265.0,1265.0,0.348,0.917,1674416412339.0,1674416678199.0,,,,,,,,2,control,,,,,,,,,True,True,False,False,False,False,False,False,False,False,True,0.0,1.0,0.0,0.0,1.0,2.0,"{'tu': 1.0, 'ni': 2.0, 'sa': 3.0, 'he': 4.0, 'ko': 5.0}",5-2,5-2,2.0,0.22925,0.57725,3,265860.0,9.0,0.3333333333333333,2.25
706,16630,63cd922858c4334a66b04cf3,run1,quiz,False,214.0,,,,214.0,63cc988c2a276a3b63c222e6,63cd90bff81f65ef9a5c5db3,$0.45,0.45,15.0,1.0,7.0,5.0,se-ta,seta,1.0,0.0,{},1674416677577.0,1674416677577.0,2361.0,2361.0,1.113,1.248,1674416593830.0,1674416679938.0,,,,,,,,2,no_count,,,,,,,,,True,False,False,False,False,False,False,False,False,False,True,0.0,1.0,0.0,0.0,1.0,2.0,"{'se': 5.0, 'ko': 3.0, 'ta': 2.0, 'nu': 4.0, 'hi': 1.0}",5-2,5-2,2.0,0.312,1.425,0,86108.0,,,
710,16636,63cd922958c4334a66b04cf9,run1,quiz,False,209.0,,,,209.0,63cc988c2a276a3b63c222e6,63cd90c4daa27a66f65b28f4,$0.93,0.93,32.0,5.0,7.0,5.0,sa-he,sahe,1.0,0.0,{},1674416679158.0,1674416679158.0,2188.0,2188.0,0.996,1.192,1674416505404.0,1674416681346.0,,,,,,,,2,no_count,,,,,,,,,True,False,False,False,False,False,False,False,False,False,True,0.0,1.0,0.0,0.0,1.0,2.0,"{'he': 2.0, 'no': 3.0, 'ki': 4.0, 'tu': 1.0, 'sa': 5.0}",5-2,5-2,2.0,0.298,1.294,2,175942.0,3.0,0.6666666666666666,1.0
714,16641,63cd922b58c4334a66b04d00,run1,quiz,True,202.0,,,,202.0,63cc988c2a276a3b63c222e6,63cd90bf64f73b22f7d9d73c,$1.92,1.92,64.0,0.0,10.0,5.0,na,na,1.0,0.0,{},1674416680292.0,1674416680292.0,727.0,727.0,0.253,0.474,1674416411912.0,1674416681019.0,,,,,,,,2,no_syntax,,,,,,,,,False,True,False,False,False,False,False,False,False,False,True,0.0,0.0,1.0,0.0,1.0,3.0,"{'ki-te': 1.0, 'ki-hu': 2.0, 'na-ki': 3.0, 'ki-so': 4.0, 'ki-na': 5.0, 'te': 6.0, 'hu': 7.0, 'ki': 8.0, 'so': 9.0, 'na': 10.0}",10,10,1.0,0.237,0.49,0,269107.0,,,
716,16643,63cd922b58c4334a66b04d03,run1,quiz,False,214.0,,,,214.0,63cc988c2a276a3b63c222e6,63cd90bff81f65ef9a5c5db3,$0.48,0.48,16.0,2.0,7.0,5.0,se-ta,seta,1.0,0.0,{},1674416680950.0,1674416680950.0,2100.0,2100.0,1.084,1.016,1674416593830.0,1674416683050.0,,,,,,,,2,no_count,,,,,,,,,True,False,False,False,False,False,False,False,False,False,True,0.0,1.0,0.0,0.0,1.0,2.0,"{'se': 5.0, 'ko': 3.0, 'ta': 2.0, 'nu': 4.0, 'hi': 1.0}",5-2,5-2,2.0,0.254,1.338,1,89220.0,,,
725,16656,63cd922e58c4334a66b04d14,run1,quiz,True,201.0,,,,201.0,63cc988c2a276a3b63c222e6,63cd90c104ce9aaee32c8ab4,$1.79,1.79,64.0,0.0,10.0,5.0,ni-ko,niko,1.0,0.0,{},1674416685095.0,1674416685095.0,2113.0,2113.0,1.095,1.018,1674416412339.0,1674416687208.0,,,,,,,,2,control,,,,,,,,,True,True,False,False,False,False,False,False,False,False,True,0.0,0.0,1.0,0.0,1.0,3.0,"{'tu': 1.0, 'ni': 2.0, 'sa': 3.0, 'he': 4.0, 'ko': 5.0}",2-5,2-5,2.0,0.2545,1.3495,0,274869.0,,,
738,16674,63cd923558c4334a66b04d34,run1,quiz,False,200.0,,,,200.0,63cc988c2a276a3b63c222e6,63cd90c2a458c0073ab23311,$0.45,0.45,21.0,4.0,7.0,5.0,hu-ta,huta,1.0,0.0,{},1674416688533.0,1674416688533.0,5486.0,5486.0,4.483,1.003,1674416412505.0,1674416694019.0,,,,,,,,2,no_count,,,,,,,,,True,False,False,False,False,False,False,False,False,False,True,0.0,1.0,0.0,0.0,1.0,2.0,"{'so': 1.0, 'ki': 4.0, 'ne': 3.0, 'ta': 2.0, 'hu': 5.0}",5-2,5-2,2.0,0.25075,4.73375,0,281514.0,,,
739,16675,63cd923558c4334a66b04d35,run1,quiz,False,203.0,,,,203.0,63cc988c2a276a3b63c222e6,63cd90c5957ca83dce489bfb,$0.78,0.78,31.0,4.0,7.0,5.0,ka-te,kate,1.0,0.0,{},1674416691596.0,1674416691596.0,2504.0,2504.0,1.515,0.989,1674416416374.0,1674416694100.0,,,,,,,,2,no_count,,,,,,,,,True,False,False,False,False,False,False,False,False,False,True,0.0,1.0,0.0,0.0,1.0,2.0,"{'te': 2.0, 'hi': 4.0, 'nu': 1.0, 'ka': 5.0, 'so': 3.0}",5-2,5-2,2.0,0.24725,1.76225,0,277726.0,,,
742,16678,63cd923658c4334a66b04d39,run1,quiz,False,210.0,,,,210.0,63cc988c2a276a3b63c222e6,63cd90bc2e4b038c93a054a4,$1.02,1.02,34.0,6.0,7.0,5.0,te-ku,teku,1.0,0.0,{},1674416691785.0,1674416691785.0,3002.0,3002.0,1.153,1.849,1674416511198.0,1674416694787.0,,,,,,,,2,control,,,,,,,,,True,True,False,False,False,False,False,False,False,False,True,0.0,1.0,0.0,0.0,1.0,2.0,"{'so': 1.0, 'ku': 2.0, 'hi': 3.0, 'na': 4.0, 'te': 5.0}",5-2,5-2,2.0,0.46225,1.61525,0,183589.0,,,
745,16684,63cd923958c4334a66b04d43,run1,quiz,False,203.0,,,,203.0,63cc988c2a276a3b63c222e6,63cd90c5957ca83dce489bfb,$0.81,0.81,32.0,5.0,7.0,5.0,ka-te,kate,1.0,0.0,{},1674416695115.0,1674416695115.0,2385.0,2385.0,1.392,0.993,1674416416374.0,1674416697500.0,,,,,,,,2,no_count,,,,,,,,,True,False,False,False,False,False,False,False,False,False,True,0.0,1.0,0.0,0.0,1.0,2.0,"{'te': 2.0, 'hi': 4.0, 'nu': 1.0, 'ka': 5.0, 'so': 3.0}",5-2,5-2,2.0,0.24825,1.64025,1,281126.0,,,
746,16685,63cd923958c4334a66b04d46,run1,quiz,False,209.0,,,,209.0,63cc988c2a276a3b63c222e6,63cd90c4daa27a66f65b28f4,$1.08,1.08,37.0,3.0,7.0,5.0,sa-he,sahe,1.0,0.0,{},1674416695726.0,1674416695726.0,2199.0,2199.0,1.213,0.986,1674416505404.0,1674416697925.0,,,,,,,,2,no_count,,,,,,,,,True,False,False,False,False,False,False,False,False,False,True,0.0,1.0,0.0,0.0,1.0,2.0,"{'he': 2.0, 'no': 3.0, 'ki': 4.0, 'tu': 1.0, 'sa': 5.0}",5-2,5-2,2.0,0.2465,1.4595,3,192521.0,4.0,0.75,1.0
781,16734,63cd924758c4334a66b04d91,run1,quiz,False,200.0,,,,200.0,63cc988c2a276a3b63c222e6,63cd90c2a458c0073ab23311,$0.54,0.54,24.0,1.0,7.0,5.0,hu-ta,huta,1.0,0.0,{},1674416708821.0,1674416708821.0,3364.0,3364.0,2.211,1.153,1674416412505.0,1674416712185.0,,,,,,,,2,no_count,,,,,,,,,True,False,False,False,False,False,False,False,False,False,True,0.0,1.0,0.0,0.0,1.0,2.0,"{'so': 1.0, 'ki': 4.0, 'ne': 3.0, 'ta': 2.0, 'hu': 5.0}",5-2,5-2,2.0,0.28825,2.49925,1,299680.0,3.0,0.3333333333333333,1.5
795,16749,63cd924b58c4334a66b04da4,run1,quiz,False,208.0,,,,208.0,63cc988c2a276a3b63c222e6,63cd90c5b1711dec65761f5a,$1.01,1.01,34.0,6.0,7.0,5.0,he,he,1.0,0.0,{},1674416713009.0,1674416713009.0,2528.0,2528.0,0.825,1.703,1674416494961.0,1674416715537.0,,,,,,,,2,no_syntax,,,,,,,,,False,True,False,False,False,False,False,False,False,False,True,0.0,1.0,0.0,0.0,1.0,2.0,"{'ni': 1.0, 'ni-ta': 2.0, 'so-ni': 3.0, 'ni-so': 4.0, 'ta': 5.0, 'ku': 6.0, 'he': 7.0, 'ni-ku': 8.0, 'so': 9.0, 'ni-he': 10.0}",7,7,1.0,0.8515,1.6765,0,220576.0,,,
796,16750,63cd924c58c4334a66b04da8,run1,quiz,False,209.0,,,,209.0,63cc988c2a276a3b63c222e6,63cd90c4daa27a66f65b28f4,$1.16,1.16,40.0,6.0,10.0,5.0,he-sa,hesa,1.0,0.0,{},1674416714261.0,1674416714261.0,2220.0,2220.0,1.805,0.415,1674416505404.0,1674416716481.0,,,,,,,,2,no_count,,,,,,,,,True,False,False,False,False,False,False,False,False,False,True,0.0,0.0,1.0,0.0,1.0,3.0,"{'he': 2.0, 'no': 3.0, 'ki': 4.0, 'tu': 1.0, 'sa': 5.0}",2-5,2-5,2.0,0.10375,1.90875,0,211077.0,,,
797,16751,63cd924c58c4334a66b04daa,run1,quiz,False,210.0,,,,210.0,63cc988c2a276a3b63c222e6,63cd90bc2e4b038c93a054a4,$1.26,1.26,42.0,6.0,7.0,5.0,te-ku,teku,1.0,0.0,{},1674416714721.0,1674416714721.0,2179.0,2179.0,0.879,1.3,1674416511198.0,1674416716900.0,,,,,,,,2,control,,,,,,,,,True,True,False,False,False,False,False,False,False,False,True,0.0,1.0,0.0,0.0,1.0,2.0,"{'so': 1.0, 'ku': 2.0, 'hi': 3.0, 'na': 4.0, 'te': 5.0}",5-2,5-2,2.0,0.325,1.204,1,205702.0,7.0,0.14285714285714285,3.5
806,16763,63cd925058c4334a66b04dbe,run1,quiz,False,213.0,,,,213.0,63cc988c2a276a3b63c222e6,63cd90bdfec356cac6a7ae7a,$1.02,1.02,34.0,6.0,7.0,5.0,sa-ti,sati,1.0,0.0,{},1674416718989.0,1674416718989.0,2039.0,2039.0,0.725,1.314,1674416501730.0,1674416721028.0,,,,,,,,2,no_syntax,,,,,,,,,False,True,False,False,False,False,False,False,False,False,True,0.0,1.0,0.0,0.0,1.0,2.0,"{'ke': 1.0, 'nu-sa': 2.0, 'nu': 3.0, 'ti': 4.0, 'sa-ho': 5.0, 'sa-nu': 6.0, 'sa-ti': 7.0, 'ho': 8.0, 'sa': 9.0, 'sa-ke': 10.0}",7,9-4,2.0,0.3285,1.0535,0,219298.0,,,
814,16779,63cd925658c4334a66b04dd9,run1,quiz,False,205.0,,,,205.0,63cc988c2a276a3b63c222e6,63cd90bb574360aaf178d455,$0.87,0.87,34.0,6.0,7.0,5.0,ho-sa,hosa,1.0,0.0,{},1674416723652.0,1674416723652.0,2967.0,2967.0,1.782,1.185,1674416471066.0,1674416726619.0,,,,,,,,2,no_syntax,,,,,,,,,False,True,False,False,False,False,False,False,False,False,True,0.0,1.0,0.0,0.0,1.0,2.0,"{'ho-ti': 1.0, 'sa-ho': 2.0, 'ho-ke': 3.0, 'sa': 4.0, 'ho': 5.0, 'ho-nu': 6.0, 'ho-sa': 7.0, 'ke': 8.0, 'nu': 9.0, 'ti': 10.0}",7,5-4,2.0,0.29625,2.07825,0,255553.0,,,
817,16782,63cd925858c4334a66b04dde,run1,quiz,False,204.0,,,,204.0,63cc988c2a276a3b63c222e6,63cd90bccb4ee70c05e4eae7,$0.81,0.81,30.0,2.0,7.0,5.0,su-hi,suni,0.0,0.0,{},1674416701395.0,1674416701395.0,26523.0,26523.0,5.412,,1674416453737.0,1674416727918.0,,,,,,,,2,no_count,,,,,,,,,True,False,False,False,False,False,False,False,False,False,True,0.0,1.0,0.0,0.0,1.0,2.0,"{'hi': 2.0, 'ka': 4.0, 'to': 3.0, 'ne': 1.0, 'su': 5.0}",5-ni,5-2,2.0,,,0,274181.0,,,
853,16828,63cd926758c4334a66b04e28,run1,quiz,False,210.0,,,,210.0,63cc988c2a276a3b63c222e6,63cd90bc2e4b038c93a054a4,$1.53,1.53,51.0,6.0,7.0,5.0,te-ku,teku,1.0,0.0,{},1674416741595.0,1674416741595.0,1655.0,1655.0,0.381,1.274,1674416511198.0,1674416743250.0,,,,,,,,2,control,,,,,,,,,True,True,False,False,False,False,False,False,False,False,True,0.0,1.0,0.0,0.0,1.0,2.0,"{'so': 1.0, 'ku': 2.0, 'hi': 3.0, 'na': 4.0, 'te': 5.0}",5-2,5-2,2.0,0.3185,0.6995,2,232052.0,8.0,0.25,2.6666666666666665
866,16842,63cd926b58c4334a66b04e3a,run1,quiz,False,211.0,,,,211.0,63cc988c2a276a3b63c222e6,63cd90c28add84e03ab9e0b7,$1.02,1.02,34.0,6.0,7.0,5.0,he,he,1.0,0.0,{},1674416745829.0,1674416745829.0,1814.0,1814.0,0.91,0.904,1674416519182.0,1674416747643.0,,,,,,,,2,no_syntax,,,,,,,,,False,True,False,False,False,False,False,False,False,False,True,0.0,1.0,0.0,0.0,1.0,2.0,"{'he-sa': 1.0, 'he-ti': 2.0, 'sa': 3.0, 'no': 4.0, 'he-ku': 5.0, 'ku': 6.0, 'he': 7.0, 'he-no': 8.0, 'sa-he': 9.0, 'ti': 10.0}",7,7,1.0,0.452,1.362,0,228461.0,,,
872,16851,63cd926d58c4334a66b04e45,run1,quiz,False,208.0,,,,208.0,63cc988c2a276a3b63c222e6,63cd90c5b1711dec65761f5a,$1.25,1.25,42.0,6.0,7.0,5.0,he,he,1.0,0.0,{},1674416742690.0,1674416742690.0,6732.0,6732.0,3.1,3.632,1674416494961.0,1674416749422.0,,,,,,,,2,no_syntax,,,,,,,,,False,True,False,False,False,False,False,False,False,False,True,0.0,1.0,0.0,0.0,1.0,2.0,"{'ni': 1.0, 'ni-ta': 2.0, 'so-ni': 3.0, 'ni-so': 4.0, 'ta': 5.0, 'ku': 6.0, 'he': 7.0, 'ni-ku': 8.0, 'so': 9.0, 'ni-he': 10.0}",7,7,1.0,1.816,4.916,1,254461.0,7.0,0.14285714285714285,3.5
874,16853,63cd926e58c4334a66b04e47,run1,quiz,False,205.0,,,,205.0,63cc988c2a276a3b63c222e6,63cd90bb574360aaf178d455,$1.11,1.11,42.0,6.0,7.0,5.0,ho-sa,hosa,1.0,0.0,{},1674416747522.0,1674416747522.0,2741.0,2741.0,2.15,0.591,1674416471066.0,1674416750263.0,,,,,,,,2,no_syntax,,,,,,,,,False,True,False,False,False,False,False,False,False,False,True,0.0,1.0,0.0,0.0,1.0,2.0,"{'ho-ti': 1.0, 'sa-ho': 2.0, 'ho-ke': 3.0, 'sa': 4.0, 'ho': 5.0, 'ho-nu': 6.0, 'ho-sa': 7.0, 'ke': 8.0, 'nu': 9.0, 'ti': 10.0}",7,5-4,2.0,0.14775,2.29775,1,279197.0,7.0,0.14285714285714285,3.5
886,16874,63cd927658c4334a66b04e6d,run1,quiz,False,204.0,,,,204.0,63cc988c2a276a3b63c222e6,63cd90bccb4ee70c05e4eae7,$0.87,0.87,32.0,4.0,7.0,5.0,su-hi,suhi,1.0,0.0,{},1674416754679.0,1674416754679.0,3398.0,3398.0,1.688,1.71,1674416453737.0,1674416758077.0,,,,,,,,2,no_count,,,,,,,,,True,False,False,False,False,False,False,False,False,False,True,0.0,1.0,0.0,0.0,1.0,2.0,"{'hi': 2.0, 'ka': 4.0, 'to': 3.0, 'ne': 1.0, 'su': 5.0}",5-2,5-2,2.0,0.4275,2.1155,1,304340.0,,,
889,16879,63cd927758c4334a66b04e74,run1,quiz,False,213.0,,,,213.0,63cc988c2a276a3b63c222e6,63cd90bdfec356cac6a7ae7a,$1.26,1.26,42.0,6.0,7.0,5.0,sa-ti,sati,1.0,0.0,{},1674416757674.0,1674416757674.0,1987.0,1987.0,0.75,1.237,1674416501730.0,1674416759661.0,,,,,,,,2,no_syntax,,,,,,,,,False,True,False,False,False,False,False,False,False,False,True,0.0,1.0,0.0,0.0,1.0,2.0,"{'ke': 1.0, 'nu-sa': 2.0, 'nu': 3.0, 'ti': 4.0, 'sa-ho': 5.0, 'sa-nu': 6.0, 'sa-ti': 7.0, 'ho': 8.0, 'sa': 9.0, 'sa-ke': 10.0}",7,9-4,2.0,0.30925,1.05925,1,257931.0,7.0,0.14285714285714285,3.5
923,16927,63cd928758c4334a66b04ebf,run1,quiz,False,207.0,,,,207.0,63cc988c2a276a3b63c222e6,63cd90c2196ce7878f4ac0b7,$0.97,0.97,34.0,6.0,7.0,5.0,ne-sa,nesa,1.0,0.0,{},1674416761465.0,1674416761465.0,13569.0,13569.0,11.526,2.043,1674416465311.0,1674416775034.0,,,,,,,,2,control,,,,,,,,,True,True,False,False,False,False,False,False,False,False,True,0.0,1.0,0.0,0.0,1.0,2.0,"{'hi': 1.0, 'sa': 2.0, 'ko': 3.0, 'tu': 4.0, 'ne': 5.0}",5-2,5-2,2.0,0.51075,12.03675,0,309723.0,,,
945,16962,63cd929158c4334a66b04ef2,run1,quiz,False,211.0,,,,211.0,63cc988c2a276a3b63c222e6,63cd90c28add84e03ab9e0b7,$1.26,1.26,42.0,6.0,7.0,5.0,he,he,1.0,0.0,{},1674416783940.0,1674416783940.0,1831.0,1831.0,0.958,0.873,1674416519182.0,1674416785771.0,,,,,,,,2,no_syntax,,,,,,,,,False,True,False,False,False,False,False,False,False,False,True,0.0,1.0,0.0,0.0,1.0,2.0,"{'he-sa': 1.0, 'he-ti': 2.0, 'sa': 3.0, 'no': 4.0, 'he-ku': 5.0, 'ku': 6.0, 'he': 7.0, 'he-no': 8.0, 'sa-he': 9.0, 'ti': 10.0}",7,7,1.0,0.4365,1.3945,1,266589.0,7.0,0.14285714285714285,3.5
952,16974,63cd929458c4334a66b04f04,run1,quiz,False,205.0,,,,205.0,63cc988c2a276a3b63c222e6,63cd90bb574360aaf178d455,$1.29,1.29,51.0,6.0,7.0,5.0,ho-sa,ke,0.0,0.0,{},1674416786987.0,1674416786987.0,1244.0,1244.0,0.926,0.318,1674416471066.0,1674416788231.0,,,,,,,,2,no_syntax,,,,,,,,,False,True,False,False,False,False,False,False,False,False,True,0.0,1.0,0.0,0.0,1.0,2.0,"{'ho-ti': 1.0, 'sa-ho': 2.0, 'ho-ke': 3.0, 'sa': 4.0, 'ho': 5.0, 'ho-nu': 6.0, 'ho-sa': 7.0, 'ke': 8.0, 'nu': 9.0, 'ti': 10.0}",8,5-4,2.0,0.159,1.085,2,317165.0,8.0,0.25,2.6666666666666665
961,16990,63cd929758c4334a66b04f18,run1,quiz,False,208.0,,,,208.0,63cc988c2a276a3b63c222e6,63cd90c5b1711dec65761f5a,$1.52,1.52,51.0,6.0,7.0,5.0,he,he,1.0,0.0,{},1674416790477.0,1674416790477.0,1320.0,1320.0,0.782,0.538,1674416494961.0,1674416791797.0,,,,,,,,2,no_syntax,,,,,,,,,False,True,False,False,False,False,False,False,False,False,True,0.0,1.0,0.0,0.0,1.0,2.0,"{'ni': 1.0, 'ni-ta': 2.0, 'so-ni': 3.0, 'ni-so': 4.0, 'ta': 5.0, 'ku': 6.0, 'he': 7.0, 'ni-ku': 8.0, 'so': 9.0, 'ni-he': 10.0}",7,7,1.0,0.269,1.0510000000000002,2,296836.0,8.0,0.25,2.6666666666666665
971,17010,63cd929c58c4334a66b04f32,run1,quiz,True,210.0,,,,210.0,63cc988c2a276a3b63c222e6,63cd90bc2e4b038c93a054a4,$1.83,1.83,61.0,6.0,7.0,5.0,te-ku,teku,1.0,0.0,{},1674416794488.0,1674416794488.0,1500.0,1500.0,0.451,1.049,1674416511198.0,1674416795988.0,,,,,,,,2,control,,,,,,,,,True,True,False,False,False,False,False,False,False,False,True,0.0,1.0,0.0,0.0,1.0,2.0,"{'so': 1.0, 'ku': 2.0, 'hi': 3.0, 'na': 4.0, 'te': 5.0}",5-2,5-2,2.0,0.26225,0.7132499999999999,3,284790.0,9.0,0.3333333333333333,2.25
977,17021,63cd929e58c4334a66b04f41,run1,quiz,False,203.0,,,,203.0,63cc988c2a276a3b63c222e6,63cd90c5957ca83dce489bfb,$1.42,1.42,53.0,2.0,7.0,5.0,ka-te,kate,1.0,0.0,{},1674416796689.0,1674416796689.0,2494.0,2494.0,1.547,0.947,1674416416374.0,1674416799183.0,,,,,,,,2,no_count,,,,,,,,,True,False,False,False,False,False,False,False,False,False,True,0.0,1.0,0.0,0.0,1.0,2.0,"{'te': 2.0, 'hi': 4.0, 'nu': 1.0, 'ka': 5.0, 'so': 3.0}",5-2,5-2,2.0,0.23675,1.78375,2,382809.0,17.0,0.11764705882352941,5.666666666666667
978,17022,63cd929e58c4334a66b04f43,run1,quiz,False,213.0,,,,213.0,63cc988c2a276a3b63c222e6,63cd90bdfec356cac6a7ae7a,$1.53,1.53,51.0,6.0,7.0,5.0,sa-ti,sati,1.0,0.0,{},1674416796762.0,1674416796762.0,2252.0,2252.0,0.814,1.438,1674416501730.0,1674416799014.0,,,,,,,,2,no_syntax,,,,,,,,,False,True,False,False,False,False,False,False,False,False,True,0.0,1.0,0.0,0.0,1.0,2.0,"{'ke': 1.0, 'nu-sa': 2.0, 'nu': 3.0, 'ti': 4.0, 'sa-ho': 5.0, 'sa-nu': 6.0, 'sa-ti': 7.0, 'ho': 8.0, 'sa': 9.0, 'sa-ke': 10.0}",7,9-4,2.0,0.3595,1.1735,2,297284.0,8.0,0.25,2.6666666666666665
987,17039,63cd92a358c4334a66b04f5a,run1,quiz,False,203.0,,,,203.0,63cc988c2a276a3b63c222e6,63cd90c5957ca83dce489bfb,$1.45,1.45,54.0,3.0,10.0,5.0,te-ka,teka,1.0,0.0,{},1674416800197.0,1674416800197.0,3359.0,3359.0,1.679,1.68,1674416416374.0,1674416803556.0,,,,,,,,2,no_count,,,,,,,,,True,False,False,False,False,False,False,False,False,False,True,0.0,0.0,1.0,0.0,1.0,3.0,"{'te': 2.0, 'hi': 4.0, 'nu': 1.0, 'ka': 5.0, 'so': 3.0}",2-5,2-5,2.0,0.42,2.099,0,387182.0,,,
996,17058,63cd92a658c4334a66b04f73,run1,quiz,True,210.0,,,,210.0,63cc988c2a276a3b63c222e6,63cd90bc2e4b038c93a054a4,$1.92,1.92,64.0,0.0,10.0,5.0,ku-te,kute,1.0,0.0,{},1674416802383.0,1674416802383.0,4281.0,4281.0,2.955,1.326,1674416511198.0,1674416806664.0,,,,,,,,2,control,,,,,,,,,True,True,False,False,False,False,False,False,False,False,True,0.0,0.0,1.0,0.0,1.0,3.0,"{'so': 1.0, 'ku': 2.0, 'hi': 3.0, 'na': 4.0, 'te': 5.0}",2-5,2-5,2.0,0.3315,3.2865,0,295466.0,,,
1002,17070,63cd92aa58c4334a66b04f84,run1,quiz,False,203.0,,,,203.0,63cc988c2a276a3b63c222e6,63cd90c5957ca83dce489bfb,$1.51,1.51,56.0,5.0,7.0,5.0,ka-te,kate,1.0,0.0,{},1674416807657.0,1674416807657.0,3186.0,3186.0,2.142,1.044,1674416416374.0,1674416810843.0,,,,,,,,2,no_count,,,,,,,,,True,False,False,False,False,False,False,False,False,False,True,0.0,1.0,0.0,0.0,1.0,2.0,"{'te': 2.0, 'hi': 4.0, 'nu': 1.0, 'ka': 5.0, 'so': 3.0}",5-2,5-2,2.0,0.261,2.403,3,394469.0,3.0,1.0,0.75
1019,17099,63cd92b058c4334a66b04fab,run1,quiz,False,207.0,,,,207.0,63cc988c2a276a3b63c222e6,63cd90c2196ce7878f4ac0b7,$1.21,1.21,42.0,6.0,7.0,5.0,ne-sa,nesa,1.0,0.0,{},1674416814433.0,1674416814433.0,2059.0,2059.0,0.539,1.52,1674416465311.0,1674416816492.0,,,,,,,,2,control,,,,,,,,,True,True,False,False,False,False,False,False,False,False,True,0.0,1.0,0.0,0.0,1.0,2.0,"{'hi': 1.0, 'sa': 2.0, 'ko': 3.0, 'tu': 4.0, 'ne': 5.0}",5-2,5-2,2.0,0.38,0.919,1,351181.0,7.0,0.14285714285714285,3.5
1050,17158,63cd92bd58c4334a66b04ffc,run1,quiz,True,208.0,,,,208.0,63cc988c2a276a3b63c222e6,63cd90c5b1711dec65761f5a,$1.82,1.82,61.0,6.0,7.0,5.0,he,he,1.0,0.0,{},1674416828921.0,1674416828921.0,747.0,747.0,0.308,0.439,1674416494961.0,1674416829668.0,,,,,,,,2,no_syntax,,,,,,,,,False,True,False,False,False,False,False,False,False,False,True,0.0,1.0,0.0,0.0,1.0,2.0,"{'ni': 1.0, 'ni-ta': 2.0, 'so-ni': 3.0, 'ni-so': 4.0, 'ta': 5.0, 'ku': 6.0, 'he': 7.0, 'ni-ku': 8.0, 'so': 9.0, 'ni-he': 10.0}",7,7,1.0,0.2195,0.5275,3,334707.0,9.0,0.3333333333333333,2.25
1052,17163,63cd92bf58c4334a66b05003,run1,quiz,False,214.0,,,,214.0,63cc988c2a276a3b63c222e6,63cd90bff81f65ef9a5c5db3,$1.41,1.41,48.0,8.0,10.0,5.0,ta-se,tase,1.0,0.0,{},1674416828124.0,1674416828124.0,2646.0,2646.0,1.405,1.241,1674416593830.0,1674416830770.0,,,,,,,,2,no_count,,,,,,,,,True,False,False,False,False,False,False,False,False,False,True,0.0,0.0,1.0,0.0,1.0,3.0,"{'se': 5.0, 'ko': 3.0, 'ta': 2.0, 'nu': 4.0, 'hi': 1.0}",2-5,2-5,2.0,0.31025,1.7152500000000002,0,236940.0,,,
1065,17200,63cd92c658c4334a66b05032,run1,quiz,False,204.0,,,,204.0,63cc988c2a276a3b63c222e6,63cd90bccb4ee70c05e4eae7,$1.16,1.16,42.0,6.0,7.0,5.0,su-hi,suhi,1.0,0.0,{},1674416835002.0,1674416835002.0,3866.0,3866.0,1.856,2.01,1674416453737.0,1674416838868.0,,,,,,,,2,no_count,,,,,,,,,True,False,False,False,False,False,False,False,False,False,True,0.0,1.0,0.0,0.0,1.0,2.0,"{'hi': 2.0, 'ka': 4.0, 'to': 3.0, 'ne': 1.0, 'su': 5.0}",5-2,5-2,2.0,0.5025,2.3585000000000003,2,385131.0,9.0,0.2222222222222222,3.0
1067,17206,63cd92c758c4334a66b05038,run1,quiz,False,214.0,,,,214.0,63cc988c2a276a3b63c222e6,63cd90bff81f65ef9a5c5db3,$1.5,1.5,51.0,2.0,7.0,5.0,se-ta,seta,1.0,0.0,{},1674416836836.0,1674416836836.0,2526.0,2526.0,1.23,1.296,1674416593830.0,1674416839362.0,,,,,,,,2,no_count,,,,,,,,,True,False,False,False,False,False,False,False,False,False,True,0.0,1.0,0.0,0.0,1.0,2.0,"{'se': 5.0, 'ko': 3.0, 'ta': 2.0, 'nu': 4.0, 'hi': 1.0}",5-2,5-2,2.0,0.324,1.554,2,245532.0,31.0,0.06451612903225806,10.333333333333334
1068,17207,63cd92c858c4334a66b05039,run1,quiz,True,208.0,,,,208.0,63cc988c2a276a3b63c222e6,63cd90c5b1711dec65761f5a,$1.91,1.91,64.0,0.0,10.0,5.0,ni-he,nihe,1.0,0.0,{},1674416835950.0,1674416835950.0,3866.0,3866.0,2.612,1.254,1674416494961.0,1674416839816.0,,,,,,,,2,no_syntax,,,,,,,,,False,True,False,False,False,False,False,False,False,False,True,0.0,0.0,1.0,0.0,1.0,3.0,"{'ni': 1.0, 'ni-ta': 2.0, 'so-ni': 3.0, 'ni-so': 4.0, 'ta': 5.0, 'ku': 6.0, 'he': 7.0, 'ni-ku': 8.0, 'so': 9.0, 'ni-he': 10.0}",10,1-7,2.0,0.3135,2.9255,0,344855.0,,,
1069,17210,63cd92c858c4334a66b0503c,run1,quiz,True,213.0,,,,213.0,63cc988c2a276a3b63c222e6,63cd90bdfec356cac6a7ae7a,$1.83,1.83,61.0,6.0,7.0,5.0,sa-ti,sati,1.0,0.0,{},1674416836355.0,1674416836355.0,4211.0,4211.0,1.985,2.226,1674416501730.0,1674416840566.0,,,,,,,,2,no_syntax,,,,,,,,,False,True,False,False,False,False,False,False,False,False,True,0.0,1.0,0.0,0.0,1.0,2.0,"{'ke': 1.0, 'nu-sa': 2.0, 'nu': 3.0, 'ti': 4.0, 'sa-ho': 5.0, 'sa-nu': 6.0, 'sa-ti': 7.0, 'ho': 8.0, 'sa': 9.0, 'sa-ke': 10.0}",7,9-4,2.0,0.5565,2.5415,3,338836.0,9.0,0.3333333333333333,2.25
1071,17214,63cd92c958c4334a66b05042,run1,quiz,True,205.0,,,,205.0,63cc988c2a276a3b63c222e6,63cd90bb574360aaf178d455,$1.45,1.45,61.0,6.0,7.0,5.0,ho-sa,ne,0.0,0.0,{},1674416838498.0,1674416838498.0,2770.0,2770.0,2.402,0.368,1674416471066.0,1674416841268.0,,,,,,,,2,no_syntax,,,,,,,,,False,True,False,False,False,False,False,False,False,False,True,0.0,1.0,0.0,0.0,1.0,2.0,"{'ho-ti': 1.0, 'sa-ho': 2.0, 'ho-ke': 3.0, 'sa': 4.0, 'ho': 5.0, 'ho-nu': 6.0, 'ho-sa': 7.0, 'ke': 8.0, 'nu': 9.0, 'ti': 10.0}",,5-4,2.0,0.184,2.5860000000000003,3,370202.0,9.0,0.3333333333333333,2.25
1077,17229,63cd92cc58c4334a66b05056,run1,quiz,False,214.0,,,,214.0,63cc988c2a276a3b63c222e6,63cd90bff81f65ef9a5c5db3,$1.56,1.56,53.0,4.0,7.0,5.0,se-ta,seta,1.0,0.0,{},1674416842717.0,1674416842717.0,1549.0,1549.0,0.837,0.712,1674416593830.0,1674416844266.0,,,,,,,,2,no_count,,,,,,,,,True,False,False,False,False,False,False,False,False,False,True,0.0,1.0,0.0,0.0,1.0,2.0,"{'se': 5.0, 'ko': 3.0, 'ta': 2.0, 'nu': 4.0, 'hi': 1.0}",5-2,5-2,2.0,0.178,1.015,3,250436.0,2.0,1.5,0.5
1089,17260,63cd92d258c4334a66b0507c,run1,quiz,True,213.0,,,,213.0,63cc988c2a276a3b63c222e6,63cd90bdfec356cac6a7ae7a,$1.92,1.92,64.0,0.0,10.0,5.0,sa-ke,sake,1.0,0.0,{},1674416846028.0,1674416846028.0,4226.0,4226.0,0.642,3.584,1674416501730.0,1674416850254.0,,,,,,,,2,no_syntax,,,,,,,,,False,True,False,False,False,False,False,False,False,False,True,0.0,0.0,1.0,0.0,1.0,3.0,"{'ke': 1.0, 'nu-sa': 2.0, 'nu': 3.0, 'ti': 4.0, 'sa-ho': 5.0, 'sa-nu': 6.0, 'sa-ti': 7.0, 'ho': 8.0, 'sa': 9.0, 'sa-ke': 10.0}",10,9-1,2.0,0.896,1.538,0,348524.0,,,
1090,17264,63cd92d258c4334a66b05082,run1,quiz,False,211.0,,,,211.0,63cc988c2a276a3b63c222e6,63cd90c28add84e03ab9e0b7,$1.53,1.53,51.0,6.0,7.0,5.0,he,he,1.0,0.0,{},1674416848764.0,1674416848764.0,1913.0,1913.0,0.992,0.921,1674416519182.0,1674416850677.0,,,,,,,,2,no_syntax,,,,,,,,,False,True,False,False,False,False,False,False,False,False,True,0.0,1.0,0.0,0.0,1.0,2.0,"{'he-sa': 1.0, 'he-ti': 2.0, 'sa': 3.0, 'no': 4.0, 'he-ku': 5.0, 'ku': 6.0, 'he': 7.0, 'he-no': 8.0, 'sa-he': 9.0, 'ti': 10.0}",7,7,1.0,0.4605,1.4525,2,331495.0,8.0,0.25,2.6666666666666665
1100,17292,63cd92d958c4334a66b050a8,run1,quiz,True,205.0,,,,205.0,63cc988c2a276a3b63c222e6,63cd90bb574360aaf178d455,$1.51,1.51,64.0,0.0,10.0,5.0,ti,ti,1.0,0.0,{},1674416855368.0,1674416855368.0,1479.0,1479.0,1.163,0.316,1674416471066.0,1674416856847.0,,,,,,,,2,no_syntax,,,,,,,,,False,True,False,False,False,False,False,False,False,False,True,0.0,0.0,1.0,0.0,1.0,3.0,"{'ho-ti': 1.0, 'sa-ho': 2.0, 'ho-ke': 3.0, 'sa': 4.0, 'ho': 5.0, 'ho-nu': 6.0, 'ho-sa': 7.0, 'ke': 8.0, 'nu': 9.0, 'ti': 10.0}",10,10,1.0,0.158,1.321,0,385781.0,,,
1118,17337,63cd92e558c4334a66b050eb,run1,quiz,False,207.0,,,,207.0,63cc988c2a276a3b63c222e6,63cd90c2196ce7878f4ac0b7,$1.48,1.48,51.0,6.0,7.0,5.0,ne-sa,nesa,1.0,0.0,{},1674416866009.0,1674416866009.0,3089.0,3089.0,0.723,2.366,1674416465311.0,1674416869098.0,,,,,,,,2,control,,,,,,,,,True,True,False,False,False,False,False,False,False,False,True,0.0,1.0,0.0,0.0,1.0,2.0,"{'hi': 1.0, 'sa': 2.0, 'ko': 3.0, 'tu': 4.0, 'ne': 5.0}",5-2,5-2,2.0,0.5915,1.3145,2,403787.0,8.0,0.25,2.6666666666666665
1134,17422,63cd930258c4334a66b05177,run1,quiz,False,204.0,,,,204.0,63cc988c2a276a3b63c222e6,63cd90bccb4ee70c05e4eae7,$1.36,1.36,50.0,5.0,10.0,5.0,hi-su,susu,0.0,0.0,{},1674416875498.0,1674416875498.0,23055.0,23055.0,7.426,,1674416453737.0,1674416898553.0,,,,,,,,2,no_count,,,,,,,,,True,False,False,False,False,False,False,False,False,False,True,0.0,0.0,1.0,0.0,1.0,3.0,"{'hi': 2.0, 'ka': 4.0, 'to': 3.0, 'ne': 1.0, 'su': 5.0}",5-5,2-5,2.0,,,0,444816.0,,,
1162,17535,63cd932a58c4334a66b05235,run1,quiz,True,211.0,,,,211.0,63cc988c2a276a3b63c222e6,63cd90c28add84e03ab9e0b7,$1.8,1.8,61.0,6.0,7.0,5.0,he,he,1.0,0.0,{},1674416937089.0,1674416937089.0,1236.0,1236.0,0.539,0.697,1674416519182.0,1674416938325.0,,,,,,,,2,no_syntax,,,,,,,,,False,True,False,False,False,False,False,False,False,False,True,0.0,1.0,0.0,0.0,1.0,2.0,"{'he-sa': 1.0, 'he-ti': 2.0, 'sa': 3.0, 'no': 4.0, 'he-ku': 5.0, 'ku': 6.0, 'he': 7.0, 'he-no': 8.0, 'sa-he': 9.0, 'ti': 10.0}",7,7,1.0,0.3485,0.8875,3,419143.0,9.0,0.3333333333333333,2.25
1164,17539,63cd932b58c4334a66b0523b,run1,quiz,False,212.0,,,,212.0,63cc988c2a276a3b63c222e6,63cd90c08db3dcffe43fd1bf,$0.64,0.64,29.0,1.0,7.0,5.0,so-ka,sahi,0.0,0.0,{},1674416926306.0,1674416926306.0,13679.0,13679.0,10.577,3.102,1674416510532.0,1674416939985.0,,,,,,,,2,no_count,,,,,,,,,True,False,False,False,False,False,False,False,False,False,True,0.0,1.0,0.0,0.0,1.0,2.0,"{'hi': 1.0, 'ne': 4.0, 'so': 5.0, 'ka': 2.0, 'tu': 3.0}",sa-1,5-2,2.0,0.7755,11.3525,0,429453.0,,,
1165,17541,63cd932c58c4334a66b0523e,run1,quiz,False,204.0,,,,204.0,63cc988c2a276a3b63c222e6,63cd90bccb4ee70c05e4eae7,$1.39,1.39,51.0,6.0,7.0,5.0,su-hi,suhi,1.0,0.0,{},1674416925147.0,1674416925147.0,14835.0,14835.0,8.042,6.793,1674416453737.0,1674416939982.0,,,,,,,,2,no_count,,,,,,,,,True,False,False,False,False,False,False,False,False,False,True,0.0,1.0,0.0,0.0,1.0,2.0,"{'hi': 2.0, 'ka': 4.0, 'to': 3.0, 'ne': 1.0, 'su': 5.0}",5-2,5-2,2.0,1.69825,9.74025,3,486245.0,8.0,0.375,2.0
1168,17550,63cd932e58c4334a66b0524c,run1,quiz,True,200.0,,,,200.0,63cc988c2a276a3b63c222e6,63cd90c2a458c0073ab23311,$1.43,1.43,56.0,8.0,7.0,5.0,hu-ta,huta,1.0,0.0,{},1674416940605.0,1674416940605.0,2452.0,2452.0,1.691,0.761,1674416412505.0,1674416943057.0,,,,,,,,2,no_count,,,,,,,,,True,False,False,False,False,False,False,False,False,False,True,0.0,1.0,0.0,0.0,1.0,2.0,"{'so': 1.0, 'ki': 4.0, 'ne': 3.0, 'ta': 2.0, 'hu': 5.0}",5-2,5-2,2.0,0.19025,1.88125,2,530552.0,28.0,0.07142857142857142,9.333333333333334
1177,17578,63cd933458c4334a66b05277,run1,quiz,True,207.0,,,,207.0,63cc988c2a276a3b63c222e6,63cd90c2196ce7878f4ac0b7,$1.78,1.78,61.0,6.0,7.0,5.0,ne-sa,nesa,1.0,0.0,{},1674416946733.0,1674416946733.0,1975.0,1975.0,0.439,1.536,1674416465311.0,1674416948708.0,,,,,,,,2,control,,,,,,,,,True,True,False,False,False,False,False,False,False,False,True,0.0,1.0,0.0,0.0,1.0,2.0,"{'hi': 1.0, 'sa': 2.0, 'ko': 3.0, 'tu': 4.0, 'ne': 5.0}",5-2,5-2,2.0,0.384,0.823,3,483397.0,9.0,0.3333333333333333,2.25
1180,17593,63cd933958c4334a66b0528c,run1,quiz,True,211.0,,,,211.0,63cc988c2a276a3b63c222e6,63cd90c28add84e03ab9e0b7,$1.89,1.89,64.0,0.0,10.0,5.0,ti,ti,1.0,0.0,{},1674416948739.0,1674416948739.0,4427.0,4427.0,0.761,3.666,1674416519182.0,1674416953166.0,,,,,,,,2,no_syntax,,,,,,,,,False,True,False,False,False,False,False,False,False,False,True,0.0,0.0,1.0,0.0,1.0,3.0,"{'he-sa': 1.0, 'he-ti': 2.0, 'sa': 3.0, 'no': 4.0, 'he-ku': 5.0, 'ku': 6.0, 'he': 7.0, 'he-no': 8.0, 'sa-he': 9.0, 'ti': 10.0}",10,10,1.0,1.833,2.594,0,433984.0,,,
1186,17613,63cd934058c4334a66b052ae,run1,quiz,True,207.0,,,,207.0,63cc988c2a276a3b63c222e6,63cd90c2196ce7878f4ac0b7,$1.87,1.87,64.0,0.0,10.0,5.0,sa-ne,sane,1.0,0.0,{},1674416957663.0,1674416957663.0,2605.0,2605.0,0.824,1.781,1674416465311.0,1674416960268.0,,,,,,,,2,control,,,,,,,,,True,True,False,False,False,False,False,False,False,False,True,0.0,0.0,1.0,0.0,1.0,3.0,"{'hi': 1.0, 'sa': 2.0, 'ko': 3.0, 'tu': 4.0, 'ne': 5.0}",2-5,2-5,2.0,0.44525,1.26925,0,494957.0,,,
1191,17622,63cd934558c4334a66b052bf,run1,quiz,True,200.0,,,,200.0,63cc988c2a276a3b63c222e6,63cd90c2a458c0073ab23311,$1.61,1.61,62.0,4.0,10.0,5.0,ta-hu,tahu,1.0,0.0,{},1674416962557.0,1674416962557.0,3412.0,3412.0,1.755,1.657,1674416412505.0,1674416965969.0,,,,,,,,2,no_count,,,,,,,,,True,False,False,False,False,False,False,False,False,False,True,0.0,0.0,1.0,0.0,1.0,3.0,"{'so': 1.0, 'ki': 4.0, 'ne': 3.0, 'ta': 2.0, 'hu': 5.0}",2-5,2-5,2.0,0.41425,2.16925,0,553464.0,,,
1195,17633,63cd934a58c4334a66b052d5,run1,quiz,True,200.0,,,,200.0,63cc988c2a276a3b63c222e6,63cd90c2a458c0073ab23311,$1.64,1.64,63.0,5.0,7.0,5.0,hu-ta,huta,1.0,0.0,{},1674416966974.0,1674416966974.0,3387.0,3387.0,2.578,0.809,1674416412505.0,1674416970361.0,,,,,,,,2,no_count,,,,,,,,,True,False,False,False,False,False,False,False,False,False,True,0.0,1.0,0.0,0.0,1.0,2.0,"{'so': 1.0, 'ki': 4.0, 'ne': 3.0, 'ta': 2.0, 'hu': 5.0}",5-2,5-2,2.0,0.20225,2.78025,3,557856.0,7.0,0.42857142857142855,1.75
1213,17682,63cd937658c4334a66b05363,run1,quiz,False,216.0,,,,216.0,63cc988c2a276a3b63c222e6,63cd90c10e1b3e2d0512253b,$1.02,1.02,34.0,6.0,7.0,5.0,no,no,1.0,0.0,{},1674416987306.0,1674416987306.0,27410.0,27410.0,25.641,1.769,1674416744180.0,1674417014716.0,,,,,,,,2,no_syntax,,,,,,,,,False,True,False,False,False,False,False,False,False,False,True,0.0,1.0,0.0,0.0,1.0,2.0,"{'ku-no': 1.0, 'he': 2.0, 'ti': 3.0, 'no-he': 4.0, 'no-ku': 5.0, 'sa': 6.0, 'no': 7.0, 'ku': 8.0, 'no-ti': 9.0, 'no-sa': 10.0}",7,7,1.0,0.8845,26.5255,0,270536.0,,,
1219,17711,63cd938858c4334a66b05399,run1,quiz,False,215.0,,,,215.0,63cc988c2a276a3b63c222e6,63cd90e0d825b43936d79d24,$1,1.0,34.0,6.0,7.0,5.0,hu,hu,1.0,0.0,{},1674417022895.0,1674417022895.0,9643.0,9643.0,7.894,1.749,1674416642378.0,1674417032538.0,,,,,,,,2,no_syntax,,,,,,,,,False,True,False,False,False,False,False,False,False,False,True,0.0,1.0,0.0,0.0,1.0,2.0,"{'ka': 1.0, 'ni': 2.0, 'ni-so': 3.0, 'ni-te': 4.0, 'ka-ni': 5.0, 'ni-hu': 6.0, 'hu': 7.0, 'so': 8.0, 'te': 9.0, 'ni-ka': 10.0}",7,7,1.0,0.8745,8.7685,0,390160.0,,,
1227,17730,63cd939358c4334a66b053b6,run1,quiz,False,212.0,,,,212.0,63cc988c2a276a3b63c222e6,63cd90c08db3dcffe43fd1bf,$0.8,0.8,36.0,1.0,7.0,5.0,so-ka,sotu,0.0,0.0,{},1674417034845.0,1674417034845.0,9223.0,9223.0,3.544,5.679,1674416510532.0,1674417044068.0,,,,,,,,2,no_count,,,,,,,,,True,False,False,False,False,False,False,False,False,False,True,0.0,1.0,0.0,0.0,1.0,2.0,"{'hi': 1.0, 'ne': 4.0, 'so': 5.0, 'ka': 2.0, 'tu': 3.0}",5-3,5-2,2.0,1.41975,4.96375,1,533536.0,5.0,0.2,2.5
1260,17820,63cd93bd58c4334a66b05426,run1,quiz,False,216.0,,,,216.0,63cc988c2a276a3b63c222e6,63cd90c10e1b3e2d0512253b,$1.26,1.26,42.0,6.0,7.0,5.0,no,no,1.0,0.0,{},1674417079177.0,1674417079177.0,6273.0,6273.0,4.676,1.597,1674416744180.0,1674417085450.0,,,,,,,,2,no_syntax,,,,,,,,,False,True,False,False,False,False,False,False,False,False,True,0.0,1.0,0.0,0.0,1.0,2.0,"{'ku-no': 1.0, 'he': 2.0, 'ti': 3.0, 'no-he': 4.0, 'no-ku': 5.0, 'sa': 6.0, 'no': 7.0, 'ku': 8.0, 'no-ti': 9.0, 'no-sa': 10.0}",7,7,1.0,0.7985,5.4745,1,341270.0,7.0,0.14285714285714285,3.5
1272,17868,63cd93d258c4334a66b05460,run1,quiz,False,218.0,,,,218.0,63cc988c2a276a3b63c222e6,63cd90be5988031c4d19fd51,$1.02,1.02,34.0,6.0,7.0,5.0,si-ko,siko,1.0,0.0,{},1674417105267.0,1674417105267.0,1743.0,1743.0,0.258,1.485,1674417011702.0,1674417107010.0,,,,,,,,2,control,,,,,,,,,True,True,False,False,False,False,False,False,False,False,True,0.0,1.0,0.0,0.0,1.0,2.0,"{'te': 1.0, 'ko': 2.0, 'ha': 3.0, 'nu': 4.0, 'si': 5.0}",5-2,5-2,2.0,0.37125,0.6292500000000001,0,95308.0,,,
1284,17907,63cd93e458c4334a66b05492,run1,quiz,False,218.0,,,,218.0,63cc988c2a276a3b63c222e6,63cd90be5988031c4d19fd51,$1.26,1.26,42.0,6.0,7.0,5.0,si-ko,siko,1.0,0.0,{},1674417124084.0,1674417124084.0,899.0,899.0,0.23,0.669,1674417011702.0,1674417124983.0,,,,,,,,2,control,,,,,,,,,True,True,False,False,False,False,False,False,False,False,True,0.0,1.0,0.0,0.0,1.0,2.0,"{'te': 1.0, 'ko': 2.0, 'ha': 3.0, 'nu': 4.0, 'si': 5.0}",5-2,5-2,2.0,0.16725,0.39725,1,113281.0,7.0,0.14285714285714285,3.5
1294,17935,63cd93f158c4334a66b054b8,run1,quiz,False,215.0,,,,215.0,63cc988c2a276a3b63c222e6,63cd90e0d825b43936d79d24,$1.22,1.22,42.0,6.0,7.0,5.0,hu,hu,1.0,0.0,{},1674417132864.0,1674417132864.0,4392.0,4392.0,3.108,1.284,1674416642378.0,1674417137256.0,,,,,,,,2,no_syntax,,,,,,,,,False,True,False,False,False,False,False,False,False,False,True,0.0,1.0,0.0,0.0,1.0,2.0,"{'ka': 1.0, 'ni': 2.0, 'ni-so': 3.0, 'ni-te': 4.0, 'ka-ni': 5.0, 'ni-hu': 6.0, 'hu': 7.0, 'so': 8.0, 'te': 9.0, 'ni-ka': 10.0}",7,7,1.0,0.642,3.75,1,494878.0,7.0,0.14285714285714285,3.5
1303,17956,63cd93f858c4334a66b054ce,run1,quiz,False,218.0,,,,218.0,63cc988c2a276a3b63c222e6,63cd90be5988031c4d19fd51,$1.53,1.53,51.0,6.0,7.0,5.0,si-ko,siko,1.0,0.0,{},1674417143649.0,1674417143649.0,1369.0,1369.0,0.084,1.285,1674417011702.0,1674417145018.0,,,,,,,,2,control,,,,,,,,,True,True,False,False,False,False,False,False,False,False,True,0.0,1.0,0.0,0.0,1.0,2.0,"{'te': 1.0, 'ko': 2.0, 'ha': 3.0, 'nu': 4.0, 'si': 5.0}",5-2,5-2,2.0,0.32125,0.40525,2,133316.0,8.0,0.25,2.6666666666666665
1309,17976,63cd940458c4334a66b054e8,run1,quiz,False,216.0,,,,216.0,63cc988c2a276a3b63c222e6,63cd90c10e1b3e2d0512253b,$1.53,1.53,51.0,6.0,7.0,5.0,no,no,1.0,0.0,{},1674417153523.0,1674417153523.0,2649.0,2649.0,0.996,1.653,1674416744180.0,1674417156172.0,,,,,,,,2,no_syntax,,,,,,,,,False,True,False,False,False,False,False,False,False,False,True,0.0,1.0,0.0,0.0,1.0,2.0,"{'ku-no': 1.0, 'he': 2.0, 'ti': 3.0, 'no-he': 4.0, 'no-ku': 5.0, 'sa': 6.0, 'no': 7.0, 'ku': 8.0, 'no-ti': 9.0, 'no-sa': 10.0}",7,7,1.0,0.8265,1.8225,2,411992.0,8.0,0.25,2.6666666666666665
1326,18018,63cd941458c4334a66b05523,run1,quiz,True,218.0,,,,218.0,63cc988c2a276a3b63c222e6,63cd90be5988031c4d19fd51,$1.83,1.83,61.0,6.0,7.0,5.0,si-ko,siko,1.0,0.0,{},1674417170235.0,1674417170235.0,2539.0,2539.0,0.312,2.227,1674417011702.0,1674417172774.0,,,,,,,,2,control,,,,,,,,,True,True,False,False,False,False,False,False,False,False,True,0.0,1.0,0.0,0.0,1.0,2.0,"{'te': 1.0, 'ko': 2.0, 'ha': 3.0, 'nu': 4.0, 'si': 5.0}",5-2,5-2,2.0,0.55675,0.8687499999999999,3,161072.0,9.0,0.3333333333333333,2.25
1335,18036,63cd941a58c4334a66b0553d,run1,quiz,True,218.0,,,,218.0,63cc988c2a276a3b63c222e6,63cd90be5988031c4d19fd51,$1.92,1.92,64.0,0.0,10.0,5.0,ko-si,kosi,1.0,0.0,{},1674417177676.0,1674417177676.0,1360.0,1360.0,0.868,0.492,1674417011702.0,1674417179036.0,,,,,,,,2,control,,,,,,,,,True,True,False,False,False,False,False,False,False,False,True,0.0,0.0,1.0,0.0,1.0,3.0,"{'te': 1.0, 'ko': 2.0, 'ha': 3.0, 'nu': 4.0, 'si': 5.0}",2-5,2-5,2.0,0.123,0.991,0,167334.0,,,
1341,18057,63cd942258c4334a66b0555e,run1,quiz,False,217.0,,,,217.0,63cc988c2a276a3b63c222e6,63cd923d5988031c4d19fd7f,$0.98,0.98,34.0,6.0,7.0,5.0,nu-to,nuto,1.0,0.0,{},1674417180758.0,1674417180758.0,2955.0,2955.0,0.86,2.095,1674416901319.0,1674417183713.0,,,,,,,,2,no_syntax,,,,,,,,,False,True,False,False,False,False,False,False,False,False,True,0.0,1.0,0.0,0.0,1.0,2.0,"{'nu-ki': 1.0, 'sa-nu': 2.0, 'ki': 3.0, 'sa': 4.0, 'nu': 5.0, 'nu-he': 6.0, 'nu-to': 7.0, 'nu-sa': 8.0, 'he': 9.0, 'to': 10.0}",7,5-10,2.0,0.52375,1.38375,0,282394.0,,,
1345,18078,63cd942c58c4334a66b05581,run1,quiz,False,215.0,,,,215.0,63cc988c2a276a3b63c222e6,63cd90e0d825b43936d79d24,$1.48,1.48,51.0,6.0,7.0,5.0,hu,hu,1.0,0.0,{},1674417192788.0,1674417192788.0,3720.0,3720.0,1.978,1.742,1674416642378.0,1674417196508.0,,,,,,,,2,no_syntax,,,,,,,,,False,True,False,False,False,False,False,False,False,False,True,0.0,1.0,0.0,0.0,1.0,2.0,"{'ka': 1.0, 'ni': 2.0, 'ni-so': 3.0, 'ni-te': 4.0, 'ka-ni': 5.0, 'ni-hu': 6.0, 'hu': 7.0, 'so': 8.0, 'te': 9.0, 'ni-ka': 10.0}",7,7,1.0,0.871,2.849,2,554130.0,8.0,0.25,2.6666666666666665
1362,18135,63cd944258c4334a66b055e0,run1,quiz,True,216.0,,,,216.0,63cc988c2a276a3b63c222e6,63cd90c10e1b3e2d0512253b,$1.83,1.83,61.0,6.0,7.0,5.0,no,no,1.0,0.0,{},1674417213367.0,1674417213367.0,4778.0,4778.0,2.96,1.818,1674416744180.0,1674417218145.0,,,,,,,,2,no_syntax,,,,,,,,,False,True,False,False,False,False,False,False,False,False,True,0.0,1.0,0.0,0.0,1.0,2.0,"{'ku-no': 1.0, 'he': 2.0, 'ti': 3.0, 'no-he': 4.0, 'no-ku': 5.0, 'sa': 6.0, 'no': 7.0, 'ku': 8.0, 'no-ti': 9.0, 'no-sa': 10.0}",7,7,1.0,0.909,3.869,3,473965.0,8.0,0.375,2.0
1370,18155,63cd944a58c4334a66b05605,run1,quiz,False,217.0,,,,217.0,63cc988c2a276a3b63c222e6,63cd923d5988031c4d19fd7f,$1.22,1.22,42.0,6.0,7.0,5.0,nu-to,nuto,1.0,0.0,{},1674417220776.0,1674417220776.0,2745.0,2745.0,0.797,1.948,1674416901319.0,1674417223521.0,,,,,,,,2,no_syntax,,,,,,,,,False,True,False,False,False,False,False,False,False,False,True,0.0,1.0,0.0,0.0,1.0,2.0,"{'nu-ki': 1.0, 'sa-nu': 2.0, 'ki': 3.0, 'sa': 4.0, 'nu': 5.0, 'nu-he': 6.0, 'nu-to': 7.0, 'nu-sa': 8.0, 'he': 9.0, 'to': 10.0}",7,5-10,2.0,0.487,1.284,1,322202.0,7.0,0.14285714285714285,3.5
1376,18183,63cd945758c4334a66b05645,run1,quiz,True,216.0,,,,216.0,63cc988c2a276a3b63c222e6,63cd90c10e1b3e2d0512253b,$1.92,1.92,64.0,0.0,10.0,5.0,no-sa,nosa,1.0,0.0,{},1674417232639.0,1674417232639.0,7131.0,7131.0,3.906,3.225,1674416744180.0,1674417239770.0,,,,,,,,2,no_syntax,,,,,,,,,False,True,False,False,False,False,False,False,False,False,True,0.0,0.0,1.0,0.0,1.0,3.0,"{'ku-no': 1.0, 'he': 2.0, 'ti': 3.0, 'no-he': 4.0, 'no-ku': 5.0, 'sa': 6.0, 'no': 7.0, 'ku': 8.0, 'no-ti': 9.0, 'no-sa': 10.0}",10,7-6,2.0,0.80625,4.71225,0,495590.0,,,
1385,18210,63cd946258c4334a66b05678,run1,quiz,True,215.0,,,,215.0,63cc988c2a276a3b63c222e6,63cd90e0d825b43936d79d24,$1.78,1.78,61.0,6.0,7.0,5.0,hu,hu,1.0,0.0,{},1674417247130.0,1674417247130.0,3163.0,3163.0,1.759,1.404,1674416642378.0,1674417250293.0,,,,,,,,2,no_syntax,,,,,,,,,False,True,False,False,False,False,False,False,False,False,True,0.0,1.0,0.0,0.0,1.0,2.0,"{'ka': 1.0, 'ni': 2.0, 'ni-so': 3.0, 'ni-te': 4.0, 'ka-ni': 5.0, 'ni-hu': 6.0, 'hu': 7.0, 'so': 8.0, 'te': 9.0, 'ni-ka': 10.0}",7,7,1.0,0.702,2.461,3,607915.0,9.0,0.3333333333333333,2.25
1394,18241,63cd946c58c4334a66b056ad,run1,quiz,True,215.0,,,,215.0,63cc988c2a276a3b63c222e6,63cd90e0d825b43936d79d24,$1.87,1.87,64.0,0.0,10.0,5.0,ni-ka,nika,1.0,0.0,{},1674417257059.0,1674417257059.0,3104.0,3104.0,0.893,2.211,1674416642378.0,1674417260163.0,,,,,,,,2,no_syntax,,,,,,,,,False,True,False,False,False,False,False,False,False,False,True,0.0,0.0,1.0,0.0,1.0,3.0,"{'ka': 1.0, 'ni': 2.0, 'ni-so': 3.0, 'ni-te': 4.0, 'ka-ni': 5.0, 'ni-hu': 6.0, 'hu': 7.0, 'so': 8.0, 'te': 9.0, 'ni-ka': 10.0}",10,2-1,2.0,0.55275,1.44575,0,617785.0,,,
1395,18245,63cd946d58c4334a66b056b3,run1,quiz,False,217.0,,,,217.0,63cc988c2a276a3b63c222e6,63cd923d5988031c4d19fd7f,$1.49,1.49,51.0,6.0,7.0,5.0,nu-to,nuto,1.0,0.0,{},1674417253536.0,1674417253536.0,4683.0,4683.0,0.021,4.662,1674416901319.0,1674417258219.0,,,,,,,,2,no_syntax,,,,,,,,,False,True,False,False,False,False,False,False,False,False,True,0.0,1.0,0.0,0.0,1.0,2.0,"{'nu-ki': 1.0, 'sa-nu': 2.0, 'ki': 3.0, 'sa': 4.0, 'nu': 5.0, 'nu-he': 6.0, 'nu-to': 7.0, 'nu-sa': 8.0, 'he': 9.0, 'to': 10.0}",7,5-10,2.0,1.1655,1.1865,2,356900.0,8.0,0.25,2.6666666666666665
1397,18256,63cd947158c4334a66b056c4,run1,quiz,False,212.0,,,,212.0,63cc988c2a276a3b63c222e6,63cd90c08db3dcffe43fd1bf,$1.19,1.19,54.0,2.0,10.0,5.0,ka-so,soka,0.0,0.0,{},1674417255803.0,1674417255803.0,10010.0,10010.0,3.407,6.603,1674416510532.0,1674417265813.0,,,,,,,,2,no_count,,,,,,,,,True,False,False,False,False,False,False,False,False,False,True,0.0,0.0,1.0,0.0,1.0,3.0,"{'hi': 1.0, 'ne': 4.0, 'so': 5.0, 'ka': 2.0, 'tu': 3.0}",5-2,2-5,2.0,1.65075,5.05775,0,755281.0,,,
1414,18390,63cd949c58c4334a66b05780,run1,quiz,True,217.0,,,,217.0,63cc988c2a276a3b63c222e6,63cd923d5988031c4d19fd7f,$1.79,1.79,61.0,6.0,7.0,5.0,nu-to,nuto,1.0,0.0,{},1674417300436.0,1674417300436.0,4809.0,4809.0,0.986,3.823,1674416901319.0,1674417305245.0,,,,,,,,2,no_syntax,,,,,,,,,False,True,False,False,False,False,False,False,False,False,True,0.0,1.0,0.0,0.0,1.0,2.0,"{'nu-ki': 1.0, 'sa-nu': 2.0, 'ki': 3.0, 'sa': 4.0, 'nu': 5.0, 'nu-he': 6.0, 'nu-to': 7.0, 'nu-sa': 8.0, 'he': 9.0, 'to': 10.0}",7,5-10,2.0,0.95575,1.94175,3,403926.0,9.0,0.3333333333333333,2.25
1421,18415,63cd94a658c4334a66b057a5,run1,quiz,True,217.0,,,,217.0,63cc988c2a276a3b63c222e6,63cd923d5988031c4d19fd7f,$1.88,1.88,64.0,0.0,10.0,5.0,to,to,1.0,0.0,{},1674417313814.0,1674417313814.0,1823.0,1823.0,0.693,1.13,1674416901319.0,1674417315637.0,,,,,,,,2,no_syntax,,,,,,,,,False,True,False,False,False,False,False,False,False,False,True,0.0,0.0,1.0,0.0,1.0,3.0,"{'nu-ki': 1.0, 'sa-nu': 2.0, 'ki': 3.0, 'sa': 4.0, 'nu': 5.0, 'nu-he': 6.0, 'nu-to': 7.0, 'nu-sa': 8.0, 'he': 9.0, 'to': 10.0}",10,10,1.0,0.565,1.258,0,414318.0,,,
1432,18468,63cd94cf58c4334a66b057fc,run1,quiz,False,212.0,,,,212.0,63cc988c2a276a3b63c222e6,63cd90c08db3dcffe43fd1bf,$1.31,1.31,59.0,7.0,7.0,5.0,so-ka,soka,1.0,0.0,{},1674417351403.0,1674417351403.0,8873.0,8873.0,6.014,2.859,1674416510532.0,1674417360276.0,,,,,,,,2,no_count,,,,,,,,,True,False,False,False,False,False,False,False,False,False,True,0.0,1.0,0.0,0.0,1.0,2.0,"{'hi': 1.0, 'ne': 4.0, 'so': 5.0, 'ka': 2.0, 'tu': 3.0}",5-2,5-2,2.0,0.71475,6.72875,2,849744.0,21.0,0.09523809523809523,7.0
1437,18474,63cd94db58c4334a66b05808,run1,quiz,False,219.0,,,,219.0,63cc988c2a276a3b63c222e6,63cd90c44be8b78b74a7aeb9,$1.41,1.41,47.0,1.0,7.0,5.0,hu-ni,huni,1.0,0.0,{},1674417367028.0,1674417367028.0,2774.0,2774.0,1.671,1.103,1674416980223.0,1674417369802.0,,,,,,,,2,no_count,,,,,,,,,True,False,False,False,False,False,False,False,False,False,True,0.0,1.0,0.0,0.0,1.0,2.0,"{'to': 1.0, 'se': 4.0, 'hu': 5.0, 'ka': 3.0, 'ni': 2.0}",5-2,5-2,2.0,0.27575,1.94675,0,389579.0,,,
1443,18482,63cd94f858c4334a66b0581f,run1,quiz,False,219.0,,,,219.0,63cc988c2a276a3b63c222e6,63cd90c44be8b78b74a7aeb9,$1.53,1.53,51.0,5.0,7.0,5.0,hu-ni,huni,1.0,0.0,{},1674417395360.0,1674417395360.0,3294.0,3294.0,2.078,1.216,1674416980223.0,1674417398654.0,,,,,,,,2,no_count,,,,,,,,,True,False,False,False,False,False,False,False,False,False,True,0.0,1.0,0.0,0.0,1.0,2.0,"{'to': 1.0, 'se': 4.0, 'hu': 5.0, 'ka': 3.0, 'ni': 2.0}",5-2,5-2,2.0,0.304,2.382,1,418431.0,4.0,0.25,2.0
1446,18486,63cd950458c4334a66b0582a,run1,quiz,True,212.0,,,,212.0,63cc988c2a276a3b63c222e6,63cd90c08db3dcffe43fd1bf,$1.4,1.4,64.0,2.0,7.0,5.0,so-ka,kaso,0.0,0.0,{},1674417404626.0,1674417404626.0,8134.0,8134.0,4.607,3.527,1674416510532.0,1674417412760.0,,,,,,,,2,no_count,,,,,,,,,True,False,False,False,False,False,False,False,False,False,True,0.0,1.0,0.0,0.0,1.0,2.0,"{'hi': 1.0, 'ne': 4.0, 'so': 5.0, 'ka': 2.0, 'tu': 3.0}",2-5,5-2,2.0,0.88175,5.4887500000000005,3,902228.0,4.0,0.75,1.0
1447,18487,63cd950458c4334a66b0582b,run1,quiz,False,219.0,,,,219.0,63cc988c2a276a3b63c222e6,63cd90c44be8b78b74a7aeb9,$1.62,1.62,54.0,8.0,10.0,5.0,ni-hu,nihu,1.0,0.0,{},1674417408308.0,1674417408308.0,2686.0,2686.0,1.542,1.144,1674416980223.0,1674417410994.0,,,,,,,,2,no_count,,,,,,,,,True,False,False,False,False,False,False,False,False,False,True,0.0,0.0,1.0,0.0,1.0,3.0,"{'to': 1.0, 'se': 4.0, 'hu': 5.0, 'ka': 3.0, 'ni': 2.0}",2-5,2-5,2.0,0.286,1.828,0,430771.0,,,
1448,18489,63cd950958c4334a66b05830,run1,quiz,False,219.0,,,,219.0,63cc988c2a276a3b63c222e6,63cd90c44be8b78b74a7aeb9,$1.65,1.65,55.0,-1.0,7.0,5.0,hu-ni,huni,1.0,0.0,{},1674417411997.0,1674417411997.0,3483.0,3483.0,2.37,1.113,1674416980223.0,1674417415480.0,,,,,,,,2,no_count,,,,,,,,,True,False,False,False,False,False,False,False,False,False,True,0.0,1.0,0.0,0.0,1.0,2.0,"{'to': 1.0, 'se': 4.0, 'hu': 5.0, 'ka': 3.0, 'ni': 2.0}",5-2,5-2,2.0,0.27825,2.64825,2,435257.0,4.0,0.5,1.3333333333333333
1455,18497,63cd952258c4334a66b05847,run1,quiz,True,219.0,,,,219.0,63cc988c2a276a3b63c222e6,63cd90c44be8b78b74a7aeb9,$1.86,1.86,62.0,6.0,7.0,5.0,hu-ni,huni,1.0,0.0,{},1674417437081.0,1674417437081.0,3641.0,3641.0,2.532,1.109,1674416980223.0,1674417440722.0,,,,,,,,2,no_count,,,,,,,,,True,False,False,False,False,False,False,False,False,False,True,0.0,1.0,0.0,0.0,1.0,2.0,"{'to': 1.0, 'se': 4.0, 'hu': 5.0, 'ka': 3.0, 'ni': 2.0}",5-2,5-2,2.0,0.27725,2.80925,3,460499.0,6.0,0.5,1.5
1484,18943,63cd991f58c4334a66b05b45,run1,quiz,False,220.0,,,,220.0,63cc988c2a276a3b63c222e6,63cd95bcb254cb0c61635f63,$1.02,1.02,34.0,6.0,7.0,5.0,so-he,sohe,1.0,0.0,{},1674418412945.0,1674418412945.0,4937.0,4937.0,1.089,3.848,1674418016155.0,1674418417882.0,,,,,,,,2,no_syntax,,,,,,,,,False,True,False,False,False,False,False,False,False,False,True,0.0,1.0,0.0,0.0,1.0,2.0,"{'he-so': 1.0, 'nu': 2.0, 'so': 3.0, 'so-ti': 4.0, 'ka': 5.0, 'so-nu': 6.0, 'so-he': 7.0, 'ti': 8.0, 'he': 9.0, 'so-ka': 10.0}",7,3-9,2.0,0.962,2.051,0,401727.0,,,
1491,18952,63cd994d58c4334a66b05b4e,run1,quiz,False,220.0,,,,220.0,63cc988c2a276a3b63c222e6,63cd95bcb254cb0c61635f63,$1.26,1.26,42.0,6.0,7.0,5.0,so-he,sohe,1.0,0.0,{},1674418460051.0,1674418460051.0,3888.0,3888.0,0.395,3.493,1674418016155.0,1674418463939.0,,,,,,,,2,no_syntax,,,,,,,,,False,True,False,False,False,False,False,False,False,False,True,0.0,1.0,0.0,0.0,1.0,2.0,"{'he-so': 1.0, 'nu': 2.0, 'so': 3.0, 'so-ti': 4.0, 'ka': 5.0, 'so-nu': 6.0, 'so-he': 7.0, 'ti': 8.0, 'he': 9.0, 'so-ka': 10.0}",7,3-9,2.0,0.87325,1.26825,1,447784.0,7.0,0.14285714285714285,3.5
1499,18962,63cd998158c4334a66b05b58,run1,quiz,False,220.0,,,,220.0,63cc988c2a276a3b63c222e6,63cd95bcb254cb0c61635f63,$1.53,1.53,51.0,6.0,7.0,5.0,so-he,sohe,1.0,0.0,{},1674418510938.0,1674418510938.0,4580.0,4580.0,0.637,3.943,1674418016155.0,1674418515518.0,,,,,,,,2,no_syntax,,,,,,,,,False,True,False,False,False,False,False,False,False,False,True,0.0,1.0,0.0,0.0,1.0,2.0,"{'he-so': 1.0, 'nu': 2.0, 'so': 3.0, 'so-ti': 4.0, 'ka': 5.0, 'so-nu': 6.0, 'so-he': 7.0, 'ti': 8.0, 'he': 9.0, 'so-ka': 10.0}",7,3-9,2.0,0.98575,1.62275,2,499363.0,8.0,0.25,2.6666666666666665
1508,18973,63cd99b658c4334a66b05b63,run1,quiz,True,220.0,,,,220.0,63cc988c2a276a3b63c222e6,63cd95bcb254cb0c61635f63,$1.83,1.83,61.0,6.0,7.0,5.0,so-he,sohe,1.0,0.0,{},1674418565738.0,1674418565738.0,3407.0,3407.0,0.549,2.858,1674418016155.0,1674418569145.0,,,,,,,,2,no_syntax,,,,,,,,,False,True,False,False,False,False,False,False,False,False,True,0.0,1.0,0.0,0.0,1.0,2.0,"{'he-so': 1.0, 'nu': 2.0, 'so': 3.0, 'so-ti': 4.0, 'ka': 5.0, 'so-nu': 6.0, 'so-he': 7.0, 'ti': 8.0, 'he': 9.0, 'so-ka': 10.0}",7,3-9,2.0,0.7145,1.2635,3,552990.0,9.0,0.3333333333333333,2.25
1511,18976,63cd99c258c4334a66b05b66,run1,quiz,True,220.0,,,,220.0,63cc988c2a276a3b63c222e6,63cd95bcb254cb0c61635f63,$1.92,1.92,64.0,0.0,10.0,5.0,so-ka,soka,1.0,0.0,{},1674418577418.0,1674418577418.0,2806.0,2806.0,0.171,2.635,1674418016155.0,1674418580224.0,,,,,,,,2,no_syntax,,,,,,,,,False,True,False,False,False,False,False,False,False,False,True,0.0,0.0,1.0,0.0,1.0,3.0,"{'he-so': 1.0, 'nu': 2.0, 'so': 3.0, 'so-ti': 4.0, 'ka': 5.0, 'so-nu': 6.0, 'so-he': 7.0, 'ti': 8.0, 'he': 9.0, 'so-ka': 10.0}",10,3-5,2.0,0.65875,0.82975,0,564069.0,,,
1537,19132,63cd9fa358c4334a66b05c89,run1,quiz,False,221.0,,,,221.0,63cc988c2a276a3b63c222e6,63cd9e6336f4e5485c0f9bd2,$0.84,0.84,34.0,6.0,7.0,5.0,hi,hi,1.0,0.0,{},1674420129929.0,1674420129929.0,588.0,588.0,0.195,0.393,1674419926203.0,1674420130517.0,,,,,,,,2,no_syntax,,,,,,,,,False,True,False,False,False,False,False,False,False,False,True,0.0,1.0,0.0,0.0,1.0,2.0,"{'no': 1.0, 'te-no': 2.0, 'te-sa': 3.0, 'te': 4.0, 'sa-te': 5.0, 'te-ku': 6.0, 'hi': 7.0, 'sa': 8.0, 'te-hi': 9.0, 'ku': 10.0}",7,7,1.0,0.1965,0.3915,0,204314.0,,,
1544,19141,63cd9fb758c4334a66b05c96,run1,quiz,False,221.0,,,,221.0,63cc988c2a276a3b63c222e6,63cd9e6336f4e5485c0f9bd2,$1.08,1.08,42.0,6.0,7.0,5.0,hi,hi,1.0,0.0,{},1674420149095.0,1674420149095.0,799.0,799.0,0.407,0.392,1674419926203.0,1674420149894.0,,,,,,,,2,no_syntax,,,,,,,,,False,True,False,False,False,False,False,False,False,False,True,0.0,1.0,0.0,0.0,1.0,2.0,"{'no': 1.0, 'te-no': 2.0, 'te-sa': 3.0, 'te': 4.0, 'sa-te': 5.0, 'te-ku': 6.0, 'hi': 7.0, 'sa': 8.0, 'te-hi': 9.0, 'ku': 10.0}",7,7,1.0,0.196,0.603,1,223691.0,7.0,0.14285714285714285,3.5
1552,19151,63cd9fce58c4334a66b05ca1,run1,quiz,False,221.0,,,,221.0,63cc988c2a276a3b63c222e6,63cd9e6336f4e5485c0f9bd2,$1.35,1.35,51.0,6.0,7.0,5.0,hi,hi,1.0,0.0,{},1674420173119.0,1674420173119.0,697.0,697.0,0.296,0.401,1674419926203.0,1674420173816.0,,,,,,,,2,no_syntax,,,,,,,,,False,True,False,False,False,False,False,False,False,False,True,0.0,1.0,0.0,0.0,1.0,2.0,"{'no': 1.0, 'te-no': 2.0, 'te-sa': 3.0, 'te': 4.0, 'sa-te': 5.0, 'te-ku': 6.0, 'hi': 7.0, 'sa': 8.0, 'te-hi': 9.0, 'ku': 10.0}",7,7,1.0,0.2005,0.4965,2,247613.0,8.0,0.25,2.6666666666666665
1561,19164,63cd9ff358c4334a66b05cae,run1,quiz,True,221.0,,,,221.0,63cc988c2a276a3b63c222e6,63cd9e6336f4e5485c0f9bd2,$1.62,1.62,61.0,6.0,7.0,5.0,hi,hi,1.0,0.0,{},1674420209345.0,1674420209345.0,658.0,658.0,0.344,0.314,1674419926203.0,1674420210003.0,,,,,,,,2,no_syntax,,,,,,,,,False,True,False,False,False,False,False,False,False,False,True,0.0,1.0,0.0,0.0,1.0,2.0,"{'no': 1.0, 'te-no': 2.0, 'te-sa': 3.0, 'te': 4.0, 'sa-te': 5.0, 'te-ku': 6.0, 'hi': 7.0, 'sa': 8.0, 'te-hi': 9.0, 'ku': 10.0}",7,7,1.0,0.157,0.501,3,283800.0,9.0,0.3333333333333333,2.25
1564,19169,63cd9ffd58c4334a66b05cb3,run1,quiz,True,221.0,,,,221.0,63cc988c2a276a3b63c222e6,63cd9e6336f4e5485c0f9bd2,$1.69,1.69,64.0,0.0,10.0,5.0,ku,ku,1.0,0.0,{},1674420219128.0,1674420219128.0,1115.0,1115.0,0.626,0.489,1674419926203.0,1674420220243.0,,,,,,,,2,no_syntax,,,,,,,,,False,True,False,False,False,False,False,False,False,False,True,0.0,0.0,1.0,0.0,1.0,3.0,"{'no': 1.0, 'te-no': 2.0, 'te-sa': 3.0, 'te': 4.0, 'sa-te': 5.0, 'te-ku': 6.0, 'hi': 7.0, 'sa': 8.0, 'te-hi': 9.0, 'ku': 10.0}",10,10,1.0,0.2445,0.8705,0,294040.0,,,
1586,19294,63cda4e158c4334a66b05d58,run1,quiz,False,224.0,,,,224.0,63cc988c2a276a3b63c222e6,63cda43a4f2cca03682c8a94,$0.21,0.21,7.0,0.0,7.0,5.0,ni-su,nisu,1.0,0.0,{},1674421471147.0,1674421471147.0,3802.0,3802.0,1.792,2.01,1674421399224.0,1674421474949.0,,,,,,,,2,no_count,,,,,,,,,True,False,False,False,False,False,False,False,False,False,True,0.0,1.0,0.0,0.0,1.0,2.0,"{'ho': 1.0, 'su': 2.0, 'ta': 4.0, 'ni': 5.0, 'ke': 3.0}",5-2,5-2,2.0,0.5025,2.2945,0,75725.0,,,
1607,19346,63cda50358c4334a66b05da6,run1,quiz,False,224.0,,,,224.0,63cc988c2a276a3b63c222e6,63cda43a4f2cca03682c8a94,$0.36,0.36,12.0,2.0,7.0,5.0,ni-su,nisu,1.0,0.0,{},1674421504507.0,1674421504507.0,4717.0,4717.0,2.065,2.652,1674421399224.0,1674421509224.0,,,,,,,,2,no_count,,,,,,,,,True,False,False,False,False,False,False,False,False,False,True,0.0,1.0,0.0,0.0,1.0,2.0,"{'ho': 1.0, 'su': 2.0, 'ta': 4.0, 'ni': 5.0, 'ke': 3.0}",5-2,5-2,2.0,0.663,2.728,1,110000.0,3.0,0.3333333333333333,1.5
1610,19350,63cda50558c4334a66b05dac,run1,quiz,False,226.0,,,,226.0,63cc988c2a276a3b63c222e6,63cda43909462933aeebf989,$0.39,0.39,14.0,0.0,7.0,5.0,ke-tu,keno,0.0,0.0,{},1674421504967.0,1674421504967.0,4364.0,4364.0,1.019,3.345,1674421409986.0,1674421509331.0,,,,,,,,2,no_count,,,,,,,,,True,False,False,False,False,False,False,False,False,False,True,0.0,1.0,0.0,0.0,1.0,2.0,"{'no': 4.0, 'ha': 1.0, 'si': 3.0, 'ke': 5.0, 'tu': 2.0}",5-4,5-2,2.0,0.83625,1.85525,0,99345.0,,,
1655,19453,63cda52a58c4334a66b05e30,run1,quiz,False,224.0,,,,224.0,63cc988c2a276a3b63c222e6,63cda43a4f2cca03682c8a94,$0.63,0.63,21.0,2.0,7.0,5.0,ni-su,nisu,1.0,0.0,{},1674421544299.0,1674421544299.0,3418.0,3418.0,1.104,2.314,1674421399224.0,1674421547717.0,,,,,,,,2,no_count,,,,,,,,,True,False,False,False,False,False,False,False,False,False,True,0.0,1.0,0.0,0.0,1.0,2.0,"{'ho': 1.0, 'su': 2.0, 'ta': 4.0, 'ni': 5.0, 'ke': 3.0}",5-2,5-2,2.0,0.5785,1.6825,2,148493.0,8.0,0.25,2.6666666666666665
1672,19479,63cda53158c4334a66b05e54,run1,quiz,False,226.0,,,,226.0,63cc988c2a276a3b63c222e6,63cda43909462933aeebf989,$0.6,0.6,21.0,2.0,7.0,5.0,ke-tu,ketu,1.0,0.0,{},1674421550864.0,1674421550864.0,2483.0,2483.0,1.05,1.433,1674421409986.0,1674421553347.0,,,,,,,,2,no_count,,,,,,,,,True,False,False,False,False,False,False,False,False,False,True,0.0,1.0,0.0,0.0,1.0,2.0,"{'no': 4.0, 'ha': 1.0, 'si': 3.0, 'ke': 5.0, 'tu': 2.0}",5-2,5-2,2.0,0.35825,1.40825,1,143361.0,4.0,0.25,2.0
1694,19512,63cda53a58c4334a66b05e81,run1,quiz,False,225.0,,,,225.0,63cc988c2a276a3b63c222e6,63cda42db77fcb7d5099ea8f,$0.89,0.89,34.0,6.0,7.0,5.0,ne-ta,tane,0.0,0.0,{},1674421559782.0,1674421559782.0,1950.0,1950.0,1.258,0.692,1674421398760.0,1674421561732.0,,,,,,,,2,control,,,,,,,,,True,True,False,False,False,False,False,False,False,False,True,0.0,1.0,0.0,0.0,1.0,2.0,"{'ku': 1.0, 'ta': 2.0, 'si': 3.0, 'ho': 4.0, 'ne': 5.0}",2-5,5-2,2.0,0.173,1.431,0,162972.0,,,
1742,19592,63cda55058c4334a66b05ee7,run1,quiz,False,223.0,,,,223.0,63cc988c2a276a3b63c222e6,63cda42fce8927f18ad9d76a,$0.99,0.99,34.0,6.0,7.0,5.0,ka-su,kasu,1.0,0.0,{},1674421579757.0,1674421579757.0,4929.0,4929.0,1.222,3.707,1674421373161.0,1674421584686.0,,,,,,,,2,no_syntax,,,,,,,,,False,True,False,False,False,False,False,False,False,False,True,0.0,1.0,0.0,0.0,1.0,2.0,"{'he': 1.0, 'ni': 2.0, 'to': 3.0, 'su-ni': 4.0, 'su-he': 5.0, 'ka': 6.0, 'ka-su': 7.0, 'su': 8.0, 'su-ka': 9.0, 'su-to': 10.0}",7,6-8,2.0,0.92675,2.14875,0,211525.0,,,
1804,19681,63cda56658c4334a66b05f60,run1,quiz,False,224.0,,,,224.0,63cc988c2a276a3b63c222e6,63cda43a4f2cca03682c8a94,$1.23,1.23,41.0,1.0,7.0,5.0,ni-su,nisu,1.0,0.0,{},1674421605435.0,1674421605435.0,2675.0,2675.0,0.844,1.831,1674421399224.0,1674421608110.0,,,,,,,,2,no_count,,,,,,,,,True,False,False,False,False,False,False,False,False,False,True,0.0,1.0,0.0,0.0,1.0,2.0,"{'ho': 1.0, 'su': 2.0, 'ta': 4.0, 'ni': 5.0, 'ke': 3.0}",5-2,5-2,2.0,0.45775,1.30175,3,208886.0,17.0,0.17647058823529413,4.25
1816,19703,63cda56d58c4334a66b05f7f,run1,quiz,False,226.0,,,,226.0,63cc988c2a276a3b63c222e6,63cda43909462933aeebf989,$1.16,1.16,40.0,0.0,7.0,5.0,ke-tu,ketu,1.0,0.0,{},1674421611488.0,1674421611488.0,1915.0,1915.0,0.795,1.12,1674421409986.0,1674421613403.0,,,,,,,,2,no_count,,,,,,,,,True,False,False,False,False,False,False,False,False,False,True,0.0,1.0,0.0,0.0,1.0,2.0,"{'no': 4.0, 'ha': 1.0, 'si': 3.0, 'ke': 5.0, 'tu': 2.0}",5-2,5-2,2.0,0.28,1.0750000000000002,2,203417.0,15.0,0.13333333333333333,5.0
1852,19751,63cda57958c4334a66b05fbc,run1,quiz,False,223.0,,,,223.0,63cc988c2a276a3b63c222e6,63cda42fce8927f18ad9d76a,$1.23,1.23,42.0,6.0,7.0,5.0,ka-su,kasu,1.0,0.0,{},1674421622719.0,1674421622719.0,2657.0,2657.0,0.828,1.829,1674421373161.0,1674421625376.0,,,,,,,,2,no_syntax,,,,,,,,,False,True,False,False,False,False,False,False,False,False,True,0.0,1.0,0.0,0.0,1.0,2.0,"{'he': 1.0, 'ni': 2.0, 'to': 3.0, 'su-ni': 4.0, 'su-he': 5.0, 'ka': 6.0, 'ka-su': 7.0, 'su': 8.0, 'su-ka': 9.0, 'su-to': 10.0}",7,6-8,2.0,0.45725,1.28525,1,252215.0,7.0,0.14285714285714285,3.5
1863,19766,63cda57d58c4334a66b05fce,run1,quiz,False,225.0,,,,225.0,63cc988c2a276a3b63c222e6,63cda42db77fcb7d5099ea8f,$1.07,1.07,42.0,6.0,7.0,5.0,ne-ta,neta,1.0,0.0,{},1674421623835.0,1674421623835.0,4396.0,4396.0,3.852,0.544,1674421398760.0,1674421628231.0,,,,,,,,2,control,,,,,,,,,True,True,False,False,False,False,False,False,False,False,True,0.0,1.0,0.0,0.0,1.0,2.0,"{'ku': 1.0, 'ta': 2.0, 'si': 3.0, 'ho': 4.0, 'ne': 5.0}",5-2,5-2,2.0,0.136,3.988,1,229471.0,7.0,0.14285714285714285,3.5
1871,19778,63cda58258c4334a66b05fe1,run1,quiz,False,230.0,,,,230.0,63cc988c2a276a3b63c222e6,63cda4388fb846075b99ead4,$1.02,1.02,34.0,6.0,7.0,5.0,no-hu,nohu,1.0,0.0,{},1674421631617.0,1674421631617.0,2692.0,2692.0,0.85,1.842,1674421477278.0,1674421634309.0,,,,,,,,2,control,,,,,,,,,True,True,False,False,False,False,False,False,False,False,True,0.0,1.0,0.0,0.0,1.0,2.0,"{'te': 1.0, 'hu': 2.0, 'ka': 3.0, 'si': 4.0, 'no': 5.0}",5-2,5-2,2.0,0.4605,1.3105,0,157031.0,,,
1895,19826,63cda58f58c4334a66b06024,run1,quiz,False,224.0,,,,224.0,63cc988c2a276a3b63c222e6,63cda43a4f2cca03682c8a94,$1.65,1.65,55.0,6.0,10.0,5.0,su-ni,suni,1.0,0.0,{},1674421643995.0,1674421643995.0,4393.0,4393.0,2.974,1.419,1674421399224.0,1674421648388.0,,,,,,,,2,no_count,,,,,,,,,True,False,False,False,False,False,False,False,False,False,True,0.0,0.0,1.0,0.0,1.0,3.0,"{'ho': 1.0, 'su': 2.0, 'ta': 4.0, 'ni': 5.0, 'ke': 3.0}",2-5,2-5,2.0,0.35475,3.3287500000000003,0,249164.0,,,
1896,19827,63cda58f58c4334a66b06026,run1,quiz,False,238.0,,,,238.0,63cc988c2a276a3b63c222e6,63cda43818c6b07f462c118b,$0.98,0.98,34.0,6.0,7.0,5.0,ne-tu,netu,1.0,0.0,{},1674421643014.0,1674421643014.0,1576.0,1576.0,0.904,0.672,1674421529698.0,1674421644590.0,,,,,,,,2,control,,,,,,,,,True,True,False,False,False,False,False,False,False,False,True,0.0,1.0,0.0,0.0,1.0,2.0,"{'ka': 1.0, 'tu': 2.0, 'ho': 3.0, 'si': 4.0, 'ne': 5.0}",5-2,5-2,2.0,0.168,1.072,0,114892.0,,,
1951,19893,63cda59d58c4334a66b0607c,run1,quiz,False,229.0,,,,229.0,63cc988c2a276a3b63c222e6,63cda437ff9f04b17d761f4f,$1.02,1.02,34.0,6.0,7.0,5.0,to,to,1.0,0.0,{},1674421660246.0,1674421660246.0,1055.0,1055.0,0.615,0.44,1674421471167.0,1674421661301.0,,,,,,,,2,no_syntax,,,,,,,,,False,True,False,False,False,False,False,False,False,False,True,0.0,1.0,0.0,0.0,1.0,2.0,"{'ne': 1.0, 'ne-ha': 2.0, 'ne-ki': 3.0, 'su': 4.0, 'ne-su': 5.0, 'ha': 6.0, 'to': 7.0, 'ki-ne': 8.0, 'ne-to': 9.0, 'ki': 10.0}",7,7,1.0,0.22,0.835,0,190134.0,,,
1966,19910,63cda5a258c4334a66b06094,run1,quiz,False,223.0,,,,223.0,63cc988c2a276a3b63c222e6,63cda42fce8927f18ad9d76a,$1.5,1.5,51.0,6.0,7.0,5.0,ka-su,kasu,1.0,0.0,{},1674421662703.0,1674421662703.0,3345.0,3345.0,1.563,1.782,1674421373161.0,1674421666048.0,,,,,,,,2,no_syntax,,,,,,,,,False,True,False,False,False,False,False,False,False,False,True,0.0,1.0,0.0,0.0,1.0,2.0,"{'he': 1.0, 'ni': 2.0, 'to': 3.0, 'su-ni': 4.0, 'su-he': 5.0, 'ka': 6.0, 'ka-su': 7.0, 'su': 8.0, 'su-ka': 9.0, 'su-to': 10.0}",7,6-8,2.0,0.4455,2.0085,2,292887.0,8.0,0.25,2.6666666666666665
1968,19912,63cda5a258c4334a66b06097,run1,quiz,False,238.0,,,,238.0,63cc988c2a276a3b63c222e6,63cda43818c6b07f462c118b,$1.22,1.22,42.0,6.0,7.0,5.0,ne-tu,netu,1.0,0.0,{},1674421662495.0,1674421662495.0,1431.0,1431.0,0.46,0.971,1674421529698.0,1674421663926.0,,,,,,,,2,control,,,,,,,,,True,True,False,False,False,False,False,False,False,False,True,0.0,1.0,0.0,0.0,1.0,2.0,"{'ka': 1.0, 'tu': 2.0, 'ho': 3.0, 'si': 4.0, 'ne': 5.0}",5-2,5-2,2.0,0.24275,0.70275,1,134228.0,7.0,0.14285714285714285,3.5
1982,19932,63cda5a958c4334a66b060b4,run1,quiz,False,230.0,,,,230.0,63cc988c2a276a3b63c222e6,63cda4388fb846075b99ead4,$1.26,1.26,42.0,6.0,7.0,5.0,no-hu,nohu,1.0,0.0,{},1674421670179.0,1674421670179.0,3077.0,3077.0,0.876,2.201,1674421477278.0,1674421673256.0,,,,,,,,2,control,,,,,,,,,True,True,False,False,False,False,False,False,False,False,True,0.0,1.0,0.0,0.0,1.0,2.0,"{'te': 1.0, 'hu': 2.0, 'ka': 3.0, 'si': 4.0, 'no': 5.0}",5-2,5-2,2.0,0.55025,1.42625,1,195978.0,7.0,0.14285714285714285,3.5
1983,19933,63cda5a958c4334a66b060b5,run1,quiz,False,226.0,,,,226.0,63cc988c2a276a3b63c222e6,63cda43909462933aeebf989,$1.61,1.61,55.0,6.0,10.0,5.0,tu-ke,tuke,1.0,0.0,{},1674421671359.0,1674421671359.0,1980.0,1980.0,0.787,1.193,1674421409986.0,1674421673339.0,,,,,,,,2,no_count,,,,,,,,,True,False,False,False,False,False,False,False,False,False,True,0.0,0.0,1.0,0.0,1.0,3.0,"{'no': 4.0, 'ha': 1.0, 'si': 3.0, 'ke': 5.0, 'tu': 2.0}",2-5,2-5,2.0,0.29825,1.08525,0,263353.0,,,
1998,19956,63cda5af58c4334a66b060d3,run1,quiz,False,239.0,,,,239.0,63cc988c2a276a3b63c222e6,63cda43625a37333ea987774,$0.36,0.36,12.0,2.0,7.0,5.0,na-hi,nahi,1.0,0.0,{},1674421676159.0,1674421676159.0,3072.0,3072.0,1.68,1.392,1674421572869.0,1674421679231.0,,,,,,,,2,no_count,,,,,,,,,True,False,False,False,False,False,False,False,False,False,True,0.0,1.0,0.0,0.0,1.0,2.0,"{'se': 3.0, 'hi': 2.0, 'tu': 1.0, 'ko': 4.0, 'na': 5.0}",5-2,5-2,2.0,0.348,2.028,0,106362.0,,,
2018,19987,63cda5b758c4334a66b060fb,run1,quiz,False,225.0,,,,225.0,63cc988c2a276a3b63c222e6,63cda42db77fcb7d5099ea8f,$1.3,1.3,51.0,6.0,7.0,5.0,ne-ta,neta,1.0,0.0,{},1674421681793.0,1674421681793.0,4696.0,4696.0,3.712,0.984,1674421398760.0,1674421686489.0,,,,,,,,2,control,,,,,,,,,True,True,False,False,False,False,False,False,False,False,True,0.0,1.0,0.0,0.0,1.0,2.0,"{'ku': 1.0, 'ta': 2.0, 'si': 3.0, 'ho': 4.0, 'ne': 5.0}",5-2,5-2,2.0,0.246,3.958,2,287729.0,8.0,0.25,2.6666666666666665
2019,19988,63cda5b758c4334a66b060fc,run1,quiz,False,235.0,,,,235.0,63cc988c2a276a3b63c222e6,63cda42e9be07d8a69ccfeee,$0.99,0.99,34.0,6.0,7.0,5.0,ta-he,tahe,1.0,0.0,{},1674421683228.0,1674421683228.0,6297.0,6297.0,4.339,1.958,1674421413835.0,1674421689525.0,,,,,,,,2,no_syntax,,,,,,,,,False,True,False,False,False,False,False,False,False,False,True,0.0,1.0,0.0,0.0,1.0,2.0,"{'su': 1.0, 'ta-ki': 2.0, 'ki': 3.0, 'no': 4.0, 'he-ta': 5.0, 'ta-no': 6.0, 'ta-he': 7.0, 'he': 8.0, 'ta-su': 9.0, 'ta': 10.0}",7,10-8,2.0,0.4895,4.8285,0,275690.0,,,
2021,19990,63cda5b858c4334a66b06101,run1,quiz,False,238.0,,,,238.0,63cc988c2a276a3b63c222e6,63cda43818c6b07f462c118b,$1.48,1.48,51.0,6.0,7.0,5.0,ne-tu,netu,1.0,0.0,{},1674421685287.0,1674421685287.0,971.0,971.0,0.25,0.721,1674421529698.0,1674421686258.0,,,,,,,,2,control,,,,,,,,,True,True,False,False,False,False,False,False,False,False,True,0.0,1.0,0.0,0.0,1.0,2.0,"{'ka': 1.0, 'tu': 2.0, 'ho': 3.0, 'si': 4.0, 'ne': 5.0}",5-2,5-2,2.0,0.18025,0.43025,2,156560.0,8.0,0.25,2.6666666666666665
2023,19995,63cda5ba58c4334a66b06107,run1,quiz,True,226.0,,,,226.0,63cc988c2a276a3b63c222e6,63cda43909462933aeebf989,$1.73,1.73,59.0,0.0,7.0,5.0,ke-tu,ketu,1.0,0.0,{},1674421685049.0,1674421685049.0,4746.0,4746.0,2.306,2.44,1674421409986.0,1674421689795.0,,,,,,,,2,no_count,,,,,,,,,True,False,False,False,False,False,False,False,False,False,True,0.0,1.0,0.0,0.0,1.0,2.0,"{'no': 4.0, 'ha': 1.0, 'si': 3.0, 'ke': 5.0, 'tu': 2.0}",5-2,5-2,2.0,0.61,2.916,3,279809.0,18.0,0.16666666666666666,4.5
2026,20000,63cda5ba58c4334a66b0610c,run1,quiz,False,237.0,,,,237.0,63cc988c2a276a3b63c222e6,63cda43327073c58d4422554,$1.02,1.02,34.0,6.0,7.0,5.0,ta-ke,take,1.0,0.0,{},1674421688311.0,1674421688311.0,2123.0,2123.0,0.417,1.706,1674421528367.0,1674421690434.0,,,,,,,,2,control,,,,,,,,,True,True,False,False,False,False,False,False,False,False,True,0.0,1.0,0.0,0.0,1.0,2.0,"{'hi': 1.0, 'ke': 2.0, 'nu': 3.0, 'so': 4.0, 'ta': 5.0}",5-2,5-2,2.0,0.4265,0.8434999999999999,0,162067.0,,,
2060,20049,63cda5c858c4334a66b06153,run1,quiz,False,229.0,,,,229.0,63cc988c2a276a3b63c222e6,63cda437ff9f04b17d761f4f,$1.23,1.23,42.0,6.0,7.0,5.0,to,ti,0.0,0.0,{},1674421703199.0,1674421703199.0,848.0,848.0,0.276,0.572,1674421471167.0,1674421704047.0,,,,,,,,2,no_syntax,,,,,,,,,False,True,False,False,False,False,False,False,False,False,True,0.0,1.0,0.0,0.0,1.0,2.0,"{'ne': 1.0, 'ne-ha': 2.0, 'ne-ki': 3.0, 'su': 4.0, 'ne-su': 5.0, 'ha': 6.0, 'to': 7.0, 'ki-ne': 8.0, 'ne-to': 9.0, 'ki': 10.0}",,7,1.0,0.286,0.562,1,232880.0,7.0,0.14285714285714285,3.5
2090,20085,63cda5cf58c4334a66b06183,run1,quiz,False,235.0,,,,235.0,63cc988c2a276a3b63c222e6,63cda42e9be07d8a69ccfeee,$1.23,1.23,42.0,6.0,7.0,5.0,ta-he,tahe,1.0,0.0,{},1674421711404.0,1674421711404.0,2048.0,2048.0,0.389,1.659,1674421413835.0,1674421713452.0,,,,,,,,2,no_syntax,,,,,,,,,False,True,False,False,False,False,False,False,False,False,True,0.0,1.0,0.0,0.0,1.0,2.0,"{'su': 1.0, 'ta-ki': 2.0, 'ki': 3.0, 'no': 4.0, 'he-ta': 5.0, 'ta-no': 6.0, 'ta-he': 7.0, 'he': 8.0, 'ta-su': 9.0, 'ta': 10.0}",7,10-8,2.0,0.41475,0.80375,1,299617.0,7.0,0.14285714285714285,3.5
2098,20095,63cda5d158c4334a66b0618e,run1,quiz,False,239.0,,,,239.0,63cc988c2a276a3b63c222e6,63cda43625a37333ea987774,$0.6,0.6,20.0,0.0,7.0,5.0,na-hi,nahi,1.0,0.0,{},1674421709800.0,1674421709800.0,4226.0,4226.0,2.048,2.178,1674421572869.0,1674421714026.0,,,,,,,,2,no_count,,,,,,,,,True,False,False,False,False,False,False,False,False,False,True,0.0,1.0,0.0,0.0,1.0,2.0,"{'se': 3.0, 'hi': 2.0, 'tu': 1.0, 'ko': 4.0, 'na': 5.0}",5-2,5-2,2.0,0.5445,2.5925,1,141157.0,5.0,0.2,2.5
2099,20096,63cda5d258c4334a66b0618f,run1,quiz,False,230.0,,,,230.0,63cc988c2a276a3b63c222e6,63cda4388fb846075b99ead4,$1.53,1.53,51.0,6.0,7.0,5.0,no-hu,nohu,1.0,0.0,{},1674421711734.0,1674421711734.0,2060.0,2060.0,0.619,1.441,1674421477278.0,1674421713794.0,,,,,,,,2,control,,,,,,,,,True,True,False,False,False,False,False,False,False,False,True,0.0,1.0,0.0,0.0,1.0,2.0,"{'te': 1.0, 'hu': 2.0, 'ka': 3.0, 'si': 4.0, 'no': 5.0}",5-2,5-2,2.0,0.36025,0.97925,2,236516.0,8.0,0.25,2.6666666666666665
2103,20100,63cda5d258c4334a66b06193,run1,quiz,True,238.0,,,,238.0,63cc988c2a276a3b63c222e6,63cda43818c6b07f462c118b,$1.78,1.78,61.0,6.0,7.0,5.0,ne-tu,netu,1.0,0.0,{},1674421711710.0,1674421711710.0,688.0,688.0,0.14,0.548,1674421529698.0,1674421712398.0,,,,,,,,2,control,,,,,,,,,True,True,False,False,False,False,False,False,False,False,True,0.0,1.0,0.0,0.0,1.0,2.0,"{'ka': 1.0, 'tu': 2.0, 'ho': 3.0, 'si': 4.0, 'ne': 5.0}",5-2,5-2,2.0,0.137,0.277,3,182700.0,9.0,0.3333333333333333,2.25
2105,20102,63cda5d458c4334a66b0619a,run1,quiz,True,223.0,,,,223.0,63cc988c2a276a3b63c222e6,63cda42fce8927f18ad9d76a,$1.8,1.8,61.0,6.0,7.0,5.0,ka-su,kasu,1.0,0.0,{},1674421713771.0,1674421713771.0,2649.0,2649.0,0.871,1.778,1674421373161.0,1674421716420.0,,,,,,,,2,no_syntax,,,,,,,,,False,True,False,False,False,False,False,False,False,False,True,0.0,1.0,0.0,0.0,1.0,2.0,"{'he': 1.0, 'ni': 2.0, 'to': 3.0, 'su-ni': 4.0, 'su-he': 5.0, 'ka': 6.0, 'ka-su': 7.0, 'su': 8.0, 'su-ka': 9.0, 'su-to': 10.0}",7,6-8,2.0,0.4445,1.3155,3,343259.0,9.0,0.3333333333333333,2.25
2109,20107,63cda5d558c4334a66b0619f,run1,quiz,False,228.0,,,,228.0,63cc988c2a276a3b63c222e6,63cda43010f8545a23c71c6e,$0.72,0.72,24.0,4.0,7.0,5.0,tu-ni,tuni,1.0,0.0,{},1674421710239.0,1674421710239.0,6922.0,6922.0,4.15,2.772,1674421452220.0,1674421717161.0,,,,,,,,2,no_count,,,,,,,,,True,False,False,False,False,False,False,False,False,False,True,0.0,1.0,0.0,0.0,1.0,2.0,"{'ke': 3.0, 'ha': 4.0, 'so': 1.0, 'ni': 2.0, 'tu': 5.0}",5-2,5-2,2.0,0.693,4.843,0,264941.0,,,
2113,20111,63cda5d558c4334a66b061a3,run1,quiz,False,237.0,,,,237.0,63cc988c2a276a3b63c222e6,63cda43327073c58d4422554,$1.26,1.26,42.0,6.0,7.0,5.0,ta-ke,take,1.0,0.0,{},1674421715535.0,1674421715535.0,2062.0,2062.0,0.374,1.688,1674421528367.0,1674421717597.0,,,,,,,,2,control,,,,,,,,,True,True,False,False,False,False,False,False,False,False,True,0.0,1.0,0.0,0.0,1.0,2.0,"{'hi': 1.0, 'ke': 2.0, 'nu': 3.0, 'so': 4.0, 'ta': 5.0}",5-2,5-2,2.0,0.422,0.796,1,189230.0,7.0,0.14285714285714285,3.5
2124,20126,63cda5d958c4334a66b061b9,run1,quiz,True,238.0,,,,238.0,63cc988c2a276a3b63c222e6,63cda43818c6b07f462c118b,$1.87,1.87,64.0,0.0,10.0,5.0,tu-ne,tune,1.0,0.0,{},1674421716871.0,1674421716871.0,1784.0,1784.0,0.44,1.344,1674421529698.0,1674421718655.0,,,,,,,,2,control,,,,,,,,,True,True,False,False,False,False,False,False,False,False,True,0.0,0.0,1.0,0.0,1.0,3.0,"{'ka': 1.0, 'tu': 2.0, 'ho': 3.0, 'si': 4.0, 'ne': 5.0}",2-5,2-5,2.0,0.336,0.776,0,188957.0,,,
2144,20151,63cda5e058c4334a66b061dc,run1,quiz,False,233.0,,,,233.0,63cc988c2a276a3b63c222e6,63cda435c050682a8d35b2e1,$1.02,1.02,34.0,6.0,7.0,5.0,ko-tu,kotu,1.0,0.0,{},1674421726767.0,1674421726767.0,3260.0,3260.0,1.41,1.85,1674421496674.0,1674421730027.0,,,,,,,,2,control,,,,,,,,,True,True,False,False,False,False,False,False,False,False,True,0.0,1.0,0.0,0.0,1.0,2.0,"{'ne': 1.0, 'tu': 2.0, 'sa': 3.0, 'hi': 4.0, 'ko': 5.0}",5-2,5-2,2.0,0.4625,1.8725,0,233353.0,,,
2150,20159,63cda5e258c4334a66b061e6,run1,quiz,True,223.0,,,,223.0,63cc988c2a276a3b63c222e6,63cda42fce8927f18ad9d76a,$1.89,1.89,64.0,0.0,10.0,5.0,su-to,suto,1.0,0.0,{},1674421726358.0,1674421726358.0,4276.0,4276.0,2.18,2.096,1674421373161.0,1674421730634.0,,,,,,,,2,no_syntax,,,,,,,,,False,True,False,False,False,False,False,False,False,False,True,0.0,0.0,1.0,0.0,1.0,3.0,"{'he': 1.0, 'ni': 2.0, 'to': 3.0, 'su-ni': 4.0, 'su-he': 5.0, 'ka': 6.0, 'ka-su': 7.0, 'su': 8.0, 'su-ka': 9.0, 'su-to': 10.0}",10,8-3,2.0,0.524,2.704,0,357473.0,,,
2161,20172,63cda5e658c4334a66b061f8,run1,quiz,True,225.0,,,,225.0,63cc988c2a276a3b63c222e6,63cda42db77fcb7d5099ea8f,$1.59,1.59,61.0,6.0,7.0,5.0,ne-ta,neta,1.0,0.0,{},1674421732573.0,1674421732573.0,916.0,916.0,0.288,0.628,1674421398760.0,1674421733489.0,,,,,,,,2,control,,,,,,,,,True,True,False,False,False,False,False,False,False,False,True,0.0,1.0,0.0,0.0,1.0,2.0,"{'ku': 1.0, 'ta': 2.0, 'si': 3.0, 'ho': 4.0, 'ne': 5.0}",5-2,5-2,2.0,0.157,0.4449999999999999,3,334729.0,9.0,0.3333333333333333,2.25
2168,20181,63cda5e858c4334a66b06204,run1,quiz,False,235.0,,,,235.0,63cc988c2a276a3b63c222e6,63cda42e9be07d8a69ccfeee,$1.5,1.5,51.0,6.0,7.0,5.0,ta-he,tahe,1.0,0.0,{},1674421737013.0,1674421737013.0,1510.0,1510.0,0.311,1.199,1674421413835.0,1674421738523.0,,,,,,,,2,no_syntax,,,,,,,,,False,True,False,False,False,False,False,False,False,False,True,0.0,1.0,0.0,0.0,1.0,2.0,"{'su': 1.0, 'ta-ki': 2.0, 'ki': 3.0, 'no': 4.0, 'he-ta': 5.0, 'ta-no': 6.0, 'ta-he': 7.0, 'he': 8.0, 'ta-su': 9.0, 'ta': 10.0}",7,10-8,2.0,0.29975,0.61075,2,324688.0,8.0,0.25,2.6666666666666665
2187,20210,63cda5f258c4334a66b0622f,run1,quiz,False,237.0,,,,237.0,63cc988c2a276a3b63c222e6,63cda43327073c58d4422554,$1.53,1.53,51.0,6.0,7.0,5.0,ta-ke,take,1.0,0.0,{},1674421744649.0,1674421744649.0,2067.0,2067.0,0.444,1.623,1674421528367.0,1674421746716.0,,,,,,,,2,control,,,,,,,,,True,True,False,False,False,False,False,False,False,False,True,0.0,1.0,0.0,0.0,1.0,2.0,"{'hi': 1.0, 'ke': 2.0, 'nu': 3.0, 'so': 4.0, 'ta': 5.0}",5-2,5-2,2.0,0.40575,0.84975,2,218349.0,8.0,0.25,2.6666666666666665
2198,20226,63cda5f758c4334a66b06244,run1,quiz,True,225.0,,,,225.0,63cc988c2a276a3b63c222e6,63cda42db77fcb7d5099ea8f,$1.68,1.68,64.0,0.0,10.0,5.0,ta-ne,tane,1.0,0.0,{},1674421748062.0,1674421748062.0,1778.0,1778.0,0.05,1.728,1674421398760.0,1674421749840.0,,,,,,,,2,control,,,,,,,,,True,True,False,False,False,False,False,False,False,False,True,0.0,0.0,1.0,0.0,1.0,3.0,"{'ku': 1.0, 'ta': 2.0, 'si': 3.0, 'ho': 4.0, 'ne': 5.0}",2-5,2-5,2.0,0.432,0.482,0,351080.0,,,
2208,20239,63cda5fc58c4334a66b06257,run1,quiz,False,222.0,,,,222.0,63cc988c2a276a3b63c222e6,63cda4371aec6dfe7fa054b6,$1.16,1.16,42.0,2.0,7.0,5.0,sa-hi,sake,0.0,0.0,{},1674421746629.0,1674421746629.0,11290.0,11290.0,4.837,6.453,1674421383226.0,1674421757919.0,,,,,,,,2,no_count,,,,,,,,,True,False,False,False,False,False,False,False,False,False,True,0.0,1.0,0.0,0.0,1.0,2.0,"{'no': 4.0, 'sa': 5.0, 'hi': 2.0, 'tu': 3.0, 'ke': 1.0}",5-1,5-2,2.0,1.61325,6.45025,0,374693.0,,,
2213,20245,63cda5fe58c4334a66b0625f,run1,quiz,False,239.0,,,,239.0,63cc988c2a276a3b63c222e6,63cda43625a37333ea987774,$1.02,1.02,34.0,1.0,7.0,5.0,na-hi,nahi,1.0,0.0,{},1674421756695.0,1674421756695.0,1978.0,1978.0,1.007,0.971,1674421572869.0,1674421758673.0,,,,,,,,2,no_count,,,,,,,,,True,False,False,False,False,False,False,False,False,False,True,0.0,1.0,0.0,0.0,1.0,2.0,"{'se': 3.0, 'hi': 2.0, 'tu': 1.0, 'ko': 4.0, 'na': 5.0}",5-2,5-2,2.0,0.24275,1.24975,2,185804.0,13.0,0.15384615384615385,4.333333333333333
2228,20263,63cda60558c4334a66b0627a,run1,quiz,True,230.0,,,,230.0,63cc988c2a276a3b63c222e6,63cda4388fb846075b99ead4,$1.82,1.82,61.0,6.0,7.0,5.0,no-hu,nohu,1.0,0.0,{},1674421761659.0,1674421761659.0,3418.0,3418.0,1.547,1.871,1674421477278.0,1674421765077.0,,,,,,,,2,control,,,,,,,,,True,True,False,False,False,False,False,False,False,False,True,0.0,1.0,0.0,0.0,1.0,2.0,"{'te': 1.0, 'hu': 2.0, 'ka': 3.0, 'si': 4.0, 'no': 5.0}",5-2,5-2,2.0,0.46775,2.01475,3,287799.0,9.0,0.3333333333333333,2.25
2242,20279,63cda60a58c4334a66b06292,run1,quiz,False,229.0,,,,229.0,63cc988c2a276a3b63c222e6,63cda437ff9f04b17d761f4f,$1.51,1.51,51.0,6.0,7.0,5.0,to,to,1.0,0.0,{},1674421769245.0,1674421769245.0,1560.0,1560.0,0.35,1.21,1674421471167.0,1674421770805.0,,,,,,,,2,no_syntax,,,,,,,,,False,True,False,False,False,False,False,False,False,False,True,0.0,1.0,0.0,0.0,1.0,2.0,"{'ne': 1.0, 'ne-ha': 2.0, 'ne-ki': 3.0, 'su': 4.0, 'ne-su': 5.0, 'ha': 6.0, 'to': 7.0, 'ki-ne': 8.0, 'ne-to': 9.0, 'ki': 10.0}",7,7,1.0,0.605,0.955,2,299638.0,8.0,0.25,2.6666666666666665
2250,20288,63cda60e58c4334a66b0629e,run1,quiz,True,235.0,,,,235.0,63cc988c2a276a3b63c222e6,63cda42e9be07d8a69ccfeee,$1.8,1.8,61.0,6.0,7.0,5.0,ta-he,tahe,1.0,0.0,{},1674421769677.0,1674421769677.0,6617.0,6617.0,5.818,0.799,1674421413835.0,1674421776294.0,,,,,,,,2,no_syntax,,,,,,,,,False,True,False,False,False,False,False,False,False,False,True,0.0,1.0,0.0,0.0,1.0,2.0,"{'su': 1.0, 'ta-ki': 2.0, 'ki': 3.0, 'no': 4.0, 'he-ta': 5.0, 'ta-no': 6.0, 'ta-he': 7.0, 'he': 8.0, 'ta-su': 9.0, 'ta': 10.0}",7,10-8,2.0,0.19975,6.01775,3,362459.0,9.0,0.3333333333333333,2.25
2251,20289,63cda60e58c4334a66b0629f,run1,quiz,False,236.0,,,,236.0,63cc988c2a276a3b63c222e6,63cda431eaa70cd95f1d5491,$0.98,0.98,34.0,6.0,7.0,5.0,ni,ho,0.0,0.0,{},1674421771396.0,1674421771396.0,3212.0,3212.0,1.249,1.963,1674421520925.0,1674421774608.0,,,,,,,,2,no_syntax,,,,,,,,,False,True,False,False,False,False,False,False,False,False,True,0.0,1.0,0.0,0.0,1.0,2.0,"{'se': 1.0, 'ho-ta': 2.0, 'ho': 3.0, 'ho-se': 4.0, 'ho-ni': 5.0, 'ni-ho': 6.0, 'ni': 7.0, 'ho-ku': 8.0, 'ta': 9.0, 'ku': 10.0}",3,7,1.0,0.9815,2.2305,0,253683.0,,,
2254,20292,63cda61058c4334a66b062a7,run1,quiz,False,222.0,,,,222.0,63cc988c2a276a3b63c222e6,63cda4371aec6dfe7fa054b6,$1.2,1.2,43.0,3.0,7.0,5.0,sa-hi,sahi,1.0,0.0,{},1674421773021.0,1674421773021.0,4352.0,4352.0,2.358,1.994,1674421383226.0,1674421777373.0,,,,,,,,2,no_count,,,,,,,,,True,False,False,False,False,False,False,False,False,False,True,0.0,1.0,0.0,0.0,1.0,2.0,"{'no': 4.0, 'sa': 5.0, 'hi': 2.0, 'tu': 3.0, 'ke': 1.0}",5-2,5-2,2.0,0.4985,2.8565,1,394147.0,,,
2256,20294,63cda61158c4334a66b062ab,run1,quiz,True,230.0,,,,230.0,63cc988c2a276a3b63c222e6,63cda4388fb846075b99ead4,$1.91,1.91,64.0,0.0,10.0,5.0,hu-no,huno,1.0,0.0,{},1674421773244.0,1674421773244.0,3429.0,3429.0,1.897,1.532,1674421477278.0,1674421776673.0,,,,,,,,2,control,,,,,,,,,True,True,False,False,False,False,False,False,False,False,True,0.0,0.0,1.0,0.0,1.0,3.0,"{'te': 1.0, 'hu': 2.0, 'ka': 3.0, 'si': 4.0, 'no': 5.0}",2-5,2-5,2.0,0.383,2.28,0,299395.0,,,
2258,20296,63cda61158c4334a66b062ad,run1,quiz,False,233.0,,,,233.0,63cc988c2a276a3b63c222e6,63cda435c050682a8d35b2e1,$1.26,1.26,42.0,6.0,7.0,5.0,ko-tu,kotu,1.0,0.0,{},1674421773432.0,1674421773432.0,5154.0,5154.0,3.618,1.536,1674421496674.0,1674421778586.0,,,,,,,,2,control,,,,,,,,,True,True,False,False,False,False,False,False,False,False,True,0.0,1.0,0.0,0.0,1.0,2.0,"{'ne': 1.0, 'tu': 2.0, 'sa': 3.0, 'hi': 4.0, 'ko': 5.0}",5-2,5-2,2.0,0.384,4.002,1,281912.0,7.0,0.14285714285714285,3.5
2259,20297,63cda61158c4334a66b062ae,run1,quiz,False,232.0,,,,232.0,63cc988c2a276a3b63c222e6,63cda42fc750a65768ece732,$1.02,1.02,34.0,6.0,7.0,5.0,te-ku,teku,1.0,0.0,{},1674421758008.0,1674421758008.0,6423.0,6423.0,3.6,2.823,1674421456646.0,1674421764431.0,,,,,,,,2,no_syntax,,,,,,,,,False,True,False,False,False,False,False,False,False,False,True,0.0,1.0,0.0,0.0,1.0,2.0,"{'te-hi': 1.0, 'na': 2.0, 'te-na': 3.0, 'te-so': 4.0, 'hi': 5.0, 'so': 6.0, 'te-ku': 7.0, 'te': 8.0, 'ku': 9.0, 'ku-te': 10.0}",7,8-9,2.0,0.70575,4.30575,0,307785.0,,,
2268,20312,63cda61858c4334a66b062c4,run1,quiz,False,228.0,,,,228.0,63cc988c2a276a3b63c222e6,63cda43010f8545a23c71c6e,$0.95,0.95,32.0,6.0,7.0,5.0,tu-ni,tuni,1.0,0.0,{},1674421776694.0,1674421776694.0,7538.0,7538.0,4.854,2.684,1674421452220.0,1674421784232.0,,,,,,,,2,no_count,,,,,,,,,True,False,False,False,False,False,False,False,False,False,True,0.0,1.0,0.0,0.0,1.0,2.0,"{'ke': 3.0, 'ha': 4.0, 'so': 1.0, 'ni': 2.0, 'tu': 5.0}",5-2,5-2,2.0,0.671,5.525,1,332012.0,7.0,0.14285714285714285,3.5
