,_id,iterationName,phase,finalCount,GID,workerID,assignmentID,hitID,prolificID,studyID,sessionID,score,totalScore,trial,sectionTrial,num,base,targ,resp,correct,take,distractions,trialStartTime,takeStartTime,trialTime,takeTime,RT,WT,initTime,endTime,gender,age,comments,understood,totalLength,strategy,strategy_other,expt,cond,targetWord,targetNum,responseSide,responseNumber,responseWord,otherNumber,otherWord,missed,syntax,count,duplicate,failedGame,nonsenseGame,failedOutlier,distracted,distractedGame,manualExclude,incomplete,generalized,prim,add,mult,exp,feature_sum,maxrule,lexicon,gloss,targ_gloss,numSyls,err,strat,add_err,mul_err,sf,sf_acc,sf_strat,strat_acc,strategy_acc,exact_match
27834,61e051ecaa09f84b60e4b393,run1,generalization,,3,,,,3,61df8999cc7c1c6984f5f11d,61e0502b5d5c43ac54465f14,$1.9,190.0,,,11.0,4.0,ki-se-tu,kisetu,True,,"{'1642090897778': 'blurred', '1642090899035': 'focused', '1642090906275': 'blurred', '1642090909887': 'focused', '1642090909888': 'focused'}",1642090848232.0,,,,15.408,,1642090628729.0,1642090987727.0,,,,,,mul,,1,nan,,,,,,,,,True,True,False,False,False,False,True,False,False,False,True,,,,,,1,"{'na': 1.0, 'ki': 2.0, 'tu': 3.0, 'se': 4.0}",2-4-3,2-4-3,3,0.0,mul,2.0,0.0,False,0.0,add,mul,mul,True
27835,61e051ecaa09f84b60e4b393,run1,generalization,,3,,,,3,61df8999cc7c1c6984f5f11d,61e0502b5d5c43ac54465f14,$1.9,190.0,,,12.0,4.0,tu-se,tuna,False,,"{'1642090897778': 'blurred', '1642090899035': 'focused', '1642090906275': 'blurred', '1642090909887': 'focused', '1642090909888': 'focused'}",1642090848232.0,,,,7.624,,1642090628729.0,1642090987727.0,,,,,,mul,,1,nan,,,,,,,,,True,True,False,False,False,False,True,False,False,False,True,,,,,,1,"{'na': 1.0, 'ki': 2.0, 'tu': 3.0, 'se': 4.0}",3-1,3-4,2,8.0,mul,8.0,8.0,False,inf,idk,bad,bad,False
27836,61e051ecaa09f84b60e4b393,run1,generalization,,3,,,,3,61df8999cc7c1c6984f5f11d,61e0502b5d5c43ac54465f14,$1.9,190.0,,,13.0,4.0,tu-se-na,tunaki,True,,"{'1642090897778': 'blurred', '1642090899035': 'focused', '1642090906275': 'blurred', '1642090909887': 'focused', '1642090909888': 'focused'}",1642090848232.0,,,,9.266,,1642090628729.0,1642090987727.0,,,,,,mul_sf,,1,nan,,,,,,,,,True,True,False,False,False,False,True,False,False,False,True,,,,,,1,"{'na': 1.0, 'ki': 2.0, 'tu': 3.0, 'se': 4.0}",3-1-2,3-4-1,3,0.0,mul,7.0,8.0,True,0.0,mul,mul,mul_sf,False
27837,61e051ecaa09f84b60e4b393,run1,generalization,,3,,,,3,61df8999cc7c1c6984f5f11d,61e0502b5d5c43ac54465f14,$1.9,190.0,,,14.0,4.0,tu-se-ki,tunatu,True,,"{'1642090897778': 'blurred', '1642090899035': 'focused', '1642090906275': 'blurred', '1642090909887': 'focused', '1642090909888': 'focused'}",1642090848232.0,,,,6.112,,1642090628729.0,1642090987727.0,,,,,,add_sf,,1,nan,,,,,,,,,True,True,False,False,False,False,True,False,False,False,True,,,,,,1,"{'na': 1.0, 'ki': 2.0, 'tu': 3.0, 'se': 4.0}",3-1-3,3-4-2,3,0.0,add,7.0,8.0,True,0.0,add,add,add_sf,False
27838,61e051ecaa09f84b60e4b393,run1,generalization,,3,,,,3,61df8999cc7c1c6984f5f11d,61e0502b5d5c43ac54465f14,$1.9,190.0,,,15.0,4.0,tu-se-tu,tunase,True,,"{'1642090897778': 'blurred', '1642090899035': 'focused', '1642090906275': 'blurred', '1642090909887': 'focused', '1642090909888': 'focused'}",1642090848232.0,,,,22.296,,1642090628729.0,1642090987727.0,,,,,,add_sf,,1,nan,,,,,,,,,True,True,False,False,False,False,True,False,False,False,True,,,,,,1,"{'na': 1.0, 'ki': 2.0, 'tu': 3.0, 'se': 4.0}",3-1-4,3-4-3,3,0.0,add,7.0,8.0,True,0.0,add,add,add_sf,False
27849,61e0520faa09f84b60e4b3fd,run1,generalization,,2,,,,2,61df8999cc7c1c6984f5f11d,61e0501bfd26a345e8c26caa,$1.94,194.0,,,11.0,5.0,nu-ka-ti,hekati,False,,"{'1642090876212': 'blurred', '1642090877514': 'focused', '1642090877815': 'blurred', '1642090878360': 'focused', '1642090878374': 'blurred', '1642090879379': 'focused', '1642090879491': 'blurred', '1642090881305': 'focused'}",1642090869147.0,,,,,,1642090619434.0,1642091023910.0,,,,,,add,,1,nan,,,,,,,,,True,True,False,False,False,False,True,False,False,False,True,,,,,,1,"{'ti': 1.0, 'nu': 2.0, 'he': 3.0, 'so': 4.0, 'ka': 5.0}",3-5-1,2-5-1,3,2.0,add,2.0,5.0,False,inf,idk,bad,bad,False
27850,61e0520faa09f84b60e4b3fd,run1,generalization,,2,,,,2,61df8999cc7c1c6984f5f11d,61e0501bfd26a345e8c26caa,$1.94,194.0,,,12.0,5.0,nu-ka-nu,nukati,False,,"{'1642090876212': 'blurred', '1642090877514': 'focused', '1642090877815': 'blurred', '1642090878360': 'focused', '1642090878374': 'blurred', '1642090879379': 'focused', '1642090879491': 'blurred', '1642090881305': 'focused'}",1642090869147.0,,,,3.81,,1642090619434.0,1642091023910.0,,,,,,mul,,1,nan,,,,,,,,,True,True,False,False,False,False,True,False,False,False,True,,,,,,1,"{'ti': 1.0, 'nu': 2.0, 'he': 3.0, 'so': 4.0, 'ka': 5.0}",2-5-1,2-5-2,3,1.0,mul,4.0,1.0,False,inf,idk,bad,bad,False
27851,61e0520faa09f84b60e4b3fd,run1,generalization,,2,,,,2,61df8999cc7c1c6984f5f11d,61e0501bfd26a345e8c26caa,$1.94,194.0,,,13.0,5.0,nu-ka-he,hj,False,,"{'1642090876212': 'blurred', '1642090877514': 'focused', '1642090877815': 'blurred', '1642090878360': 'focused', '1642090878374': 'blurred', '1642090879379': 'focused', '1642090879491': 'blurred', '1642090881305': 'focused'}",1642090869147.0,,,,8.917,,1642090619434.0,1642091023910.0,,,,,,mul,,1,nan,,,,,,,,,True,True,False,False,False,False,True,False,False,False,True,,,,,,1,"{'ti': 1.0, 'nu': 2.0, 'he': 3.0, 'so': 4.0, 'ka': 5.0}",hj,2-5-3,3,13.0,mul,13.0,13.0,False,inf,idk,bad,bad,False
27852,61e0520faa09f84b60e4b3fd,run1,generalization,,2,,,,2,61df8999cc7c1c6984f5f11d,61e0501bfd26a345e8c26caa,$1.94,194.0,,,14.0,5.0,nu-ka-so,nukanu,False,,"{'1642090876212': 'blurred', '1642090877514': 'focused', '1642090877815': 'blurred', '1642090878360': 'focused', '1642090878374': 'blurred', '1642090879379': 'focused', '1642090879491': 'blurred', '1642090881305': 'focused'}",1642090869147.0,,,,4.646,,1642090619434.0,1642091023910.0,,,,,,mul,,1,nan,,,,,,,,,True,True,False,False,False,False,True,False,False,False,True,,,,,,1,"{'ti': 1.0, 'nu': 2.0, 'he': 3.0, 'so': 4.0, 'ka': 5.0}",2-5-2,2-5-4,3,2.0,mul,5.0,2.0,False,inf,idk,bad,bad,False
27853,61e0520faa09f84b60e4b3fd,run1,generalization,,2,,,,2,61df8999cc7c1c6984f5f11d,61e0501bfd26a345e8c26caa,$1.94,194.0,,,15.0,5.0,he-ka,heka,True,,"{'1642090876212': 'blurred', '1642090877514': 'focused', '1642090877815': 'blurred', '1642090878360': 'focused', '1642090878374': 'blurred', '1642090879379': 'focused', '1642090879491': 'blurred', '1642090881305': 'focused'}",1642090869147.0,,,,7.743,,1642090619434.0,1642091023910.0,,,,,,mul,,1,nan,,,,,,,,,True,True,False,False,False,False,True,False,False,False,True,,,,,,1,"{'ti': 1.0, 'nu': 2.0, 'he': 3.0, 'so': 4.0, 'ka': 5.0}",3-5,3-5,2,0.0,mul,7.0,0.0,False,inf,idk,mul,mul,True
27864,61e0525baa09f84b60e4b4cc,run1,generalization,,5,,,,5,61df8999cc7c1c6984f5f11d,61e0503a92a79e2ccaa7c81c,$1.93,193.0,,,11.0,5.0,to-ku-ne,nene,False,,"{'1642091059832': 'blurred', '1642091062423': 'focused'}",1642091021915.0,,,,11.23,,1642090626149.0,1642091098235.0,,,,,,add,,1,nan,,,,,,,,,True,True,False,False,False,False,True,False,False,False,True,,,,,,1,"{'ne': 1.0, 'to': 2.0, 'ha': 3.0, 'si': 4.0, 'ku': 5.0}",1-1,2-5-1,3,9.0,add,9.0,9.0,False,inf,idk,bad,bad,False
27865,61e0525baa09f84b60e4b4cc,run1,generalization,,5,,,,5,61df8999cc7c1c6984f5f11d,61e0503a92a79e2ccaa7c81c,$1.93,193.0,,,12.0,5.0,to-ku-to,neto,True,,"{'1642091059832': 'blurred', '1642091062423': 'focused'}",1642091021915.0,,,,3.297,,1642090626149.0,1642091098235.0,,,,,,add_sf,,1,nan,,,,,,,,,True,True,False,False,False,False,True,False,False,False,True,,,,,,1,"{'ne': 1.0, 'to': 2.0, 'ha': 3.0, 'si': 4.0, 'ku': 5.0}",1-2,2-5-2,3,0.0,add,9.0,10.0,True,0.0,add,add,add_sf,False
27866,61e0525baa09f84b60e4b4cc,run1,generalization,,5,,,,5,61df8999cc7c1c6984f5f11d,61e0503a92a79e2ccaa7c81c,$1.93,193.0,,,13.0,5.0,to-ku-ha,neha,True,,"{'1642091059832': 'blurred', '1642091062423': 'focused'}",1642091021915.0,,,,5.387,,1642090626149.0,1642091098235.0,,,,,,add_sf,,1,nan,,,,,,,,,True,True,False,False,False,False,True,False,False,False,True,,,,,,1,"{'ne': 1.0, 'to': 2.0, 'ha': 3.0, 'si': 4.0, 'ku': 5.0}",1-3,2-5-3,3,0.0,add,9.0,10.0,True,0.0,add,add,add_sf,False
27867,61e0525baa09f84b60e4b4cc,run1,generalization,,5,,,,5,61df8999cc7c1c6984f5f11d,61e0503a92a79e2ccaa7c81c,$1.93,193.0,,,14.0,5.0,to-ku-si,nesi,True,,"{'1642091059832': 'blurred', '1642091062423': 'focused'}",1642091021915.0,,,,6.776,,1642090626149.0,1642091098235.0,,,,,,add_sf,,1,nan,,,,,,,,,True,True,False,False,False,False,True,False,False,False,True,,,,,,1,"{'ne': 1.0, 'to': 2.0, 'ha': 3.0, 'si': 4.0, 'ku': 5.0}",1-4,2-5-4,3,0.0,add,9.0,10.0,True,0.0,add,add,add_sf,False
27868,61e0525baa09f84b60e4b4cc,run1,generalization,,5,,,,5,61df8999cc7c1c6984f5f11d,61e0503a92a79e2ccaa7c81c,$1.93,193.0,,,15.0,5.0,ha-ku,neku,True,,"{'1642091059832': 'blurred', '1642091062423': 'focused'}",1642091021915.0,,,,3.883,,1642090626149.0,1642091098235.0,,,,,,add_sf,,1,nan,,,,,,,,,True,True,False,False,False,False,True,False,False,False,True,,,,,,1,"{'ne': 1.0, 'to': 2.0, 'ha': 3.0, 'si': 4.0, 'ku': 5.0}",1-5,3-5,2,0.0,add,9.0,10.0,True,0.0,add,add,add_sf,False
27879,61e05319aa09f84b60e4b612,run1,generalization,,1,,,,1,61df8999cc7c1c6984f5f11d,61e05001cad36d19f0c15718,$1.94,194.0,,,11.0,2.0,su-ta-no,sutano,True,,{},1642091185315.0,,,,6.894,,1642090597389.0,1642091289006.0,,,,,,add,,1,nan,,,,,,,,,True,True,False,False,False,False,False,False,False,False,True,,,,,,1,"{'no': 1.0, 'ta': 2.0, 'hi': 4.0, 'su': 8.0}",8-2-1,8-2-1,3,0.0,add,0.0,0.0,False,inf,idk,add,add,True
27880,61e05319aa09f84b60e4b612,run1,generalization,,1,,,,1,61df8999cc7c1c6984f5f11d,61e05001cad36d19f0c15718,$1.94,194.0,,,12.0,2.0,su-hi,suhi,True,,{},1642091185315.0,,,,8.759,,1642090597389.0,1642091289006.0,,,,,,add,,1,nan,,,,,,,,,True,True,False,False,False,False,False,False,False,False,True,,,,,,1,"{'no': 1.0, 'ta': 2.0, 'hi': 4.0, 'su': 8.0}",8-4,8-4,2,0.0,add,0.0,0.0,False,inf,idk,add,add,True
27881,61e05319aa09f84b60e4b612,run1,generalization,,1,,,,1,61df8999cc7c1c6984f5f11d,61e05001cad36d19f0c15718,$1.94,194.0,,,13.0,2.0,su-hi-no,suhino,True,,{},1642091185315.0,,,,14.348,,1642090597389.0,1642091289006.0,,,,,,add,,1,nan,,,,,,,,,True,True,False,False,False,False,False,False,False,False,True,,,,,,1,"{'no': 1.0, 'ta': 2.0, 'hi': 4.0, 'su': 8.0}",8-4-1,8-4-1,3,0.0,add,0.0,0.0,False,inf,idk,add,add,True
27882,61e05319aa09f84b60e4b612,run1,generalization,,1,,,,1,61df8999cc7c1c6984f5f11d,61e05001cad36d19f0c15718,$1.94,194.0,,,14.0,2.0,su-hi-ta,sutahi,True,,{},1642091185315.0,,,,8.893,,1642090597389.0,1642091289006.0,,,,,,add,,1,nan,,,,,,,,,True,True,False,False,False,False,False,False,False,False,True,,,,,,1,"{'no': 1.0, 'ta': 2.0, 'hi': 4.0, 'su': 8.0}",8-2-4,8-4-2,3,0.0,add,0.0,2.0,False,inf,idk,add,add,False
27883,61e05319aa09f84b60e4b612,run1,generalization,,1,,,,1,61df8999cc7c1c6984f5f11d,61e05001cad36d19f0c15718,$1.94,194.0,,,15.0,2.0,su-hi-ta-no,sutahino,True,,{},1642091185315.0,,,,8.725,,1642090597389.0,1642091289006.0,,,,,,add,,1,nan,,,,,,,,,True,True,False,False,False,False,False,False,False,False,True,,,,,,1,"{'no': 1.0, 'ta': 2.0, 'hi': 4.0, 'su': 8.0}",8-2-4-1,8-4-2-1,4,0.0,add,0.0,2.0,False,0.0,mul,add,add,False
27894,61e05383aa09f84b60e4b667,run1,generalization,,6,,,,6,61df8999cc7c1c6984f5f11d,61e0502413f7285ab3af7ba5,$1.94,194.0,,,11.0,5.0,ne-ta-ho,netaho,True,,{},1642091143529.0,,,,27.151,,1642090662014.0,1642091395197.0,,,,,,mul,,1,nan,,,,,,,,,True,True,False,False,False,False,False,False,False,False,True,,,,,,1,"{'ho': 1.0, 'ne': 2.0, 'ki': 3.0, 'su': 4.0, 'ta': 5.0}",2-5-1,2-5-1,3,0.0,mul,3.0,0.0,False,0.0,add,mul,mul,True
27895,61e05383aa09f84b60e4b667,run1,generalization,,6,,,,6,61df8999cc7c1c6984f5f11d,61e0502413f7285ab3af7ba5,$1.94,194.0,,,12.0,5.0,ne-ta-ne,netane,True,,{},1642091143529.0,,,,,,1642090662014.0,1642091395197.0,,,,,,mul,,1,nan,,,,,,,,,True,True,False,False,False,False,False,False,False,False,True,,,,,,1,"{'ho': 1.0, 'ne': 2.0, 'ki': 3.0, 'su': 4.0, 'ta': 5.0}",2-5-2,2-5-2,3,0.0,mul,3.0,0.0,False,0.0,add,mul,mul,True
27896,61e05383aa09f84b60e4b667,run1,generalization,,6,,,,6,61df8999cc7c1c6984f5f11d,61e0502413f7285ab3af7ba5,$1.94,194.0,,,13.0,5.0,ne-ta-ki,netaki,True,,{},1642091143529.0,,,,14.255,,1642090662014.0,1642091395197.0,,,,,,mul,,1,nan,,,,,,,,,True,True,False,False,False,False,False,False,False,False,True,,,,,,1,"{'ho': 1.0, 'ne': 2.0, 'ki': 3.0, 'su': 4.0, 'ta': 5.0}",2-5-3,2-5-3,3,0.0,mul,3.0,0.0,False,0.0,add,mul,mul,True
27897,61e05383aa09f84b60e4b667,run1,generalization,,6,,,,6,61df8999cc7c1c6984f5f11d,61e0502413f7285ab3af7ba5,$1.94,194.0,,,14.0,5.0,ne-ta-su,netasu,True,,{},1642091143529.0,,,,9.84,,1642090662014.0,1642091395197.0,,,,,,mul,,1,nan,,,,,,,,,True,True,False,False,False,False,False,False,False,False,True,,,,,,1,"{'ho': 1.0, 'ne': 2.0, 'ki': 3.0, 'su': 4.0, 'ta': 5.0}",2-5-4,2-5-4,3,0.0,mul,3.0,0.0,False,0.0,add,mul,mul,True
27898,61e05383aa09f84b60e4b667,run1,generalization,,6,,,,6,61df8999cc7c1c6984f5f11d,61e0502413f7285ab3af7ba5,$1.94,194.0,,,15.0,5.0,ki-ta,netata,True,,{},1642091143529.0,,,,10.784,,1642090662014.0,1642091395197.0,,,,,,mul,,1,nan,,,,,,,,,True,True,False,False,False,False,False,False,False,False,True,,,,,,1,"{'ho': 1.0, 'ne': 2.0, 'ki': 3.0, 'su': 4.0, 'ta': 5.0}",2-5-5,3-5,2,0.0,mul,3.0,0.0,False,0.0,add,mul,mul,False
27909,61e05427aa09f84b60e4b6af,run1,generalization,,8,,,,8,61df8999cc7c1c6984f5f11d,61e0503662209e1bd2040d38,$1.91,191.0,,,11.0,4.0,ke-tu-ho,ketuho,True,,{},1642091336694.0,,,,25.121,,1642090807617.0,1642091556663.0,,,,,,mul,,1,nan,,,,,,,,,True,True,False,False,False,False,False,False,False,False,True,,,,,,1,"{'sa': 1.0, 'ke': 2.0, 'ho': 3.0, 'tu': 4.0}",2-4-3,2-4-3,3,0.0,mul,2.0,0.0,False,0.0,add,mul,mul,True
27910,61e05427aa09f84b60e4b6af,run1,generalization,,8,,,,8,61df8999cc7c1c6984f5f11d,61e0503662209e1bd2040d38,$1.91,191.0,,,12.0,4.0,ho-tu,ketutu,True,,{},1642091336694.0,,,,12.925,,1642090807617.0,1642091556663.0,,,,,,mul,,1,nan,,,,,,,,,True,True,False,False,False,False,False,False,False,False,True,,,,,,1,"{'sa': 1.0, 'ke': 2.0, 'ho': 3.0, 'tu': 4.0}",2-4-4,3-4,2,0.0,mul,2.0,0.0,False,0.0,add,mul,mul,False
27911,61e05427aa09f84b60e4b6af,run1,generalization,,8,,,,8,61df8999cc7c1c6984f5f11d,61e0503662209e1bd2040d38,$1.91,191.0,,,13.0,4.0,ho-tu-sa,ketutusa,True,,{},1642091336694.0,,,,,,1642090807617.0,1642091556663.0,,,,,,mul,,1,nan,,,,,,,,,True,True,False,False,False,False,False,False,False,False,True,,,,,,1,"{'sa': 1.0, 'ke': 2.0, 'ho': 3.0, 'tu': 4.0}",2-4-4-1,3-4-1,3,0.0,mul,2.0,0.0,False,0.0,add,mul,mul,False
27912,61e05427aa09f84b60e4b6af,run1,generalization,,8,,,,8,61df8999cc7c1c6984f5f11d,61e0503662209e1bd2040d38,$1.91,191.0,,,14.0,4.0,ho-tu-ke,ketutuke,True,,{},1642091336694.0,,,,4.826,,1642090807617.0,1642091556663.0,,,,,,mul,,1,nan,,,,,,,,,True,True,False,False,False,False,False,False,False,False,True,,,,,,1,"{'sa': 1.0, 'ke': 2.0, 'ho': 3.0, 'tu': 4.0}",2-4-4-2,3-4-2,3,0.0,mul,2.0,0.0,False,0.0,add,mul,mul,False
27913,61e05427aa09f84b60e4b6af,run1,generalization,,8,,,,8,61df8999cc7c1c6984f5f11d,61e0503662209e1bd2040d38,$1.91,191.0,,,15.0,4.0,ho-tu-ho,ketutuho,True,,{},1642091336694.0,,,,6.024,,1642090807617.0,1642091556663.0,,,,,,mul,,1,nan,,,,,,,,,True,True,False,False,False,False,False,False,False,False,True,,,,,,1,"{'sa': 1.0, 'ke': 2.0, 'ho': 3.0, 'tu': 4.0}",2-4-4-3,3-4-3,3,0.0,mul,2.0,0.0,False,0.0,add,mul,mul,False
27924,61e0543daa09f84b60e4b6bd,run1,generalization,,12,,,,12,61df8999cc7c1c6984f5f11d,61e0503046c244445018fd33,$1.95,195.0,,,11.0,2.0,na-ki-te,nakite,True,,"{'1642091268234': 'blurred', '1642091268814': 'focused', '1642091467033': 'blurred', '1642091468875': 'focused'}",1642091262101.0,,,,6.29,,1642090969787.0,1642091580345.0,,,,,,add,,1,nan,,,,,,,,,True,True,False,False,False,False,True,False,False,False,True,,,,,,1,"{'te': 1.0, 'ki': 2.0, 'hu': 4.0, 'na': 8.0}",8-2-1,8-2-1,3,0.0,add,0.0,0.0,False,inf,idk,add,add,True
27925,61e0543daa09f84b60e4b6bd,run1,generalization,,12,,,,12,61df8999cc7c1c6984f5f11d,61e0503046c244445018fd33,$1.95,195.0,,,12.0,2.0,na-hu,nakiki,True,,"{'1642091268234': 'blurred', '1642091268814': 'focused', '1642091467033': 'blurred', '1642091468875': 'focused'}",1642091262101.0,,,,8.561,,1642090969787.0,1642091580345.0,,,,,,add,,1,nan,,,,,,,,,True,True,False,False,False,False,True,False,False,False,True,,,,,,1,"{'te': 1.0, 'ki': 2.0, 'hu': 4.0, 'na': 8.0}",8-2-2,8-4,2,0.0,add,0.0,0.0,False,inf,idk,add,add,False
27926,61e0543daa09f84b60e4b6bd,run1,generalization,,12,,,,12,61df8999cc7c1c6984f5f11d,61e0503046c244445018fd33,$1.95,195.0,,,13.0,2.0,na-hu-te,nakite,False,,"{'1642091268234': 'blurred', '1642091268814': 'focused', '1642091467033': 'blurred', '1642091468875': 'focused'}",1642091262101.0,,,,7.047,,1642090969787.0,1642091580345.0,,,,,,add,,1,nan,,,,,,,,,True,True,False,False,False,False,True,False,False,False,True,,,,,,1,"{'te': 1.0, 'ki': 2.0, 'hu': 4.0, 'na': 8.0}",8-2-1,8-4-1,3,2.0,add,2.0,2.0,False,inf,idk,bad,bad,False
27927,61e0543daa09f84b60e4b6bd,run1,generalization,,12,,,,12,61df8999cc7c1c6984f5f11d,61e0503046c244445018fd33,$1.95,195.0,,,14.0,2.0,na-hu-ki,nakihu,True,,"{'1642091268234': 'blurred', '1642091268814': 'focused', '1642091467033': 'blurred', '1642091468875': 'focused'}",1642091262101.0,,,,9.24,,1642090969787.0,1642091580345.0,,,,,,add,,1,nan,,,,,,,,,True,True,False,False,False,False,True,False,False,False,True,,,,,,1,"{'te': 1.0, 'ki': 2.0, 'hu': 4.0, 'na': 8.0}",8-2-4,8-4-2,3,0.0,add,0.0,2.0,False,inf,idk,add,add,False
27928,61e0543daa09f84b60e4b6bd,run1,generalization,,12,,,,12,61df8999cc7c1c6984f5f11d,61e0503046c244445018fd33,$1.95,195.0,,,15.0,2.0,na-hu-ki-te,nakute,False,,"{'1642091268234': 'blurred', '1642091268814': 'focused', '1642091467033': 'blurred', '1642091468875': 'focused'}",1642091262101.0,,,,3.003,,1642090969787.0,1642091580345.0,,,,,,add,,1,nan,,,,,,,,,True,True,False,False,False,False,True,False,False,False,True,,,,,,1,"{'te': 1.0, 'ki': 2.0, 'hu': 4.0, 'na': 8.0}",8-ku-1,8-4-2-1,4,6.0,add,6.0,6.0,False,inf,idk,bad,bad,False
27939,61e0547aaa09f84b60e4b6f1,run1,generalization,,10,,,,10,61df8999cc7c1c6984f5f11d,61e05032a227ee060599fbb4,$1.86,186.0,,,11.0,2.0,hu-so-ke,husoke,True,,{},1642091377515.0,,,,4.061,,1642090839390.0,1642091643039.0,,,,,,add,,1,nan,,,,,,,,,True,True,False,False,False,False,False,False,False,False,True,,,,,,1,"{'ke': 1.0, 'so': 2.0, 'ni': 4.0, 'hu': 8.0}",8-2-1,8-2-1,3,0.0,add,0.0,0.0,False,inf,idk,add,add,True
27940,61e0547aaa09f84b60e4b6f1,run1,generalization,,10,,,,10,61df8999cc7c1c6984f5f11d,61e05032a227ee060599fbb4,$1.86,186.0,,,12.0,2.0,hu-ni,hunike,False,,{},1642091377515.0,,,,7.816,,1642090839390.0,1642091643039.0,,,,,,add,,1,nan,,,,,,,,,True,True,False,False,False,False,False,False,False,False,True,,,,,,1,"{'ke': 1.0, 'so': 2.0, 'ni': 4.0, 'hu': 8.0}",8-4-1,8-4,2,1.0,add,1.0,1.0,False,inf,idk,bad,bad,False
27941,61e0547aaa09f84b60e4b6f1,run1,generalization,,10,,,,10,61df8999cc7c1c6984f5f11d,61e05032a227ee060599fbb4,$1.86,186.0,,,13.0,2.0,hu-ni-ke,huniso,True,,{},1642091377515.0,,,,,,1642090839390.0,1642091643039.0,,,,,,add_sf,,1,nan,,,,,,,,,True,True,False,False,False,False,False,False,False,False,True,,,,,,1,"{'ke': 1.0, 'so': 2.0, 'ni': 4.0, 'hu': 8.0}",8-4-2,8-4-1,3,0.0,add,1.0,1.0,True,0.0,add,add,add_sf,False
27942,61e0547aaa09f84b60e4b6f1,run1,generalization,,10,,,,10,61df8999cc7c1c6984f5f11d,61e05032a227ee060599fbb4,$1.86,186.0,,,14.0,2.0,hu-ni-so,hunisoke,True,,{},1642091377515.0,,,,6.274,,1642090839390.0,1642091643039.0,,,,,,add_sf,,1,nan,,,,,,,,,True,True,False,False,False,False,False,False,False,False,True,,,,,,1,"{'ke': 1.0, 'so': 2.0, 'ni': 4.0, 'hu': 8.0}",8-4-2-1,8-4-2,3,0.0,add,1.0,1.0,True,0.0,add,add,add_sf,False
27943,61e0547aaa09f84b60e4b6f1,run1,generalization,,10,,,,10,61df8999cc7c1c6984f5f11d,61e05032a227ee060599fbb4,$1.86,186.0,,,15.0,2.0,hu-ni-so-ke,boh,False,,{},1642091377515.0,,,,9.636,,1642090839390.0,1642091643039.0,,,,,,add,,1,nan,,,,,,,,,True,True,False,False,False,False,False,False,False,False,True,,,,,,1,"{'ke': 1.0, 'so': 2.0, 'ni': 4.0, 'hu': 8.0}",boh,8-4-2-1,4,15.0,add,15.0,15.0,False,inf,idk,bad,bad,False
27954,61e054c2aa09f84b60e4b727,run1,generalization,,4,,,,4,61df8999cc7c1c6984f5f11d,61e0502c337b071611866160,$1.94,194.0,,,11.0,4.0,he-ko-sa,hekosa,True,,{},1642091307626.0,,,,,,1642090636188.0,1642091712835.0,,,,,,mul,,1,nan,,,,,,,,,True,True,False,False,False,False,False,False,False,False,True,,,,,,1,"{'nu': 1.0, 'he': 2.0, 'sa': 3.0, 'ko': 4.0}",2-4-3,2-4-3,3,0.0,mul,2.0,0.0,False,0.0,add,mul,mul,True
27955,61e054c2aa09f84b60e4b727,run1,generalization,,4,,,,4,61df8999cc7c1c6984f5f11d,61e0502c337b071611866160,$1.94,194.0,,,12.0,4.0,sa-ko,sanuheko,True,,{},1642091307626.0,,,,,,1642090636188.0,1642091712835.0,,,,,,mul,,1,nan,,,,,,,,,True,True,False,False,False,False,False,False,False,False,True,,,,,,1,"{'nu': 1.0, 'he': 2.0, 'sa': 3.0, 'ko': 4.0}",3-1-2-4,3-4,2,0.0,mul,2.0,0.0,False,0.0,add,mul,mul,False
27956,61e054c2aa09f84b60e4b727,run1,generalization,,4,,,,4,61df8999cc7c1c6984f5f11d,61e0502c337b071611866160,$1.94,194.0,,,13.0,4.0,sa-ko-nu,no,False,,{},1642091307626.0,,,,,,1642090636188.0,1642091712835.0,,,,,,mul,,1,nan,,,,,,,,,True,True,False,False,False,False,False,False,False,False,True,,,,,,1,"{'nu': 1.0, 'he': 2.0, 'sa': 3.0, 'ko': 4.0}",no,3-4-1,3,13.0,mul,13.0,13.0,False,inf,idk,bad,bad,False
27957,61e054c2aa09f84b60e4b727,run1,generalization,,4,,,,4,61df8999cc7c1c6984f5f11d,61e0502c337b071611866160,$1.94,194.0,,,14.0,4.0,sa-ko-he,no,False,,{},1642091307626.0,,,,2.291,,1642090636188.0,1642091712835.0,,,,,,mul,,1,nan,,,,,,,,,True,True,False,False,False,False,False,False,False,False,True,,,,,,1,"{'nu': 1.0, 'he': 2.0, 'sa': 3.0, 'ko': 4.0}",no,3-4-2,3,14.0,mul,14.0,14.0,False,inf,idk,bad,bad,False
27958,61e054c2aa09f84b60e4b727,run1,generalization,,4,,,,4,61df8999cc7c1c6984f5f11d,61e0502c337b071611866160,$1.94,194.0,,,15.0,4.0,sa-ko-sa,no,False,,{},1642091307626.0,,,,2.207,,1642090636188.0,1642091712835.0,,,,,,mul,,1,nan,,,,,,,,,True,True,False,False,False,False,False,False,False,False,True,,,,,,1,"{'nu': 1.0, 'he': 2.0, 'sa': 3.0, 'ko': 4.0}",no,3-4-3,3,15.0,mul,15.0,15.0,False,inf,idk,bad,bad,False
27969,61e0598baa09f84b60e4b8a7,run1,generalization,,13,,,,13,61df8999cc7c1c6984f5f11d,61e0547e264eec745690138c,$1.89,189.0,,,11.0,4.0,se-ki-na,sekina,True,,{},1642092489118.0,,,,10.12,,1642091920745.0,1642092939937.0,,,,,,mul,,1,nan,,,,,,,,,True,True,False,False,False,False,False,False,False,False,True,,,,,,1,"{'ho': 1.0, 'se': 2.0, 'na': 3.0, 'ki': 4.0}",2-4-3,2-4-3,3,0.0,mul,2.0,0.0,False,0.0,add,mul,mul,True
27970,61e0598baa09f84b60e4b8a7,run1,generalization,,13,,,,13,61df8999cc7c1c6984f5f11d,61e0547e264eec745690138c,$1.89,189.0,,,12.0,4.0,na-ki,hosekiho,False,,{},1642092489118.0,,,,,,1642091920745.0,1642092939937.0,,,,,,mul,,1,nan,,,,,,,,,True,True,False,False,False,False,False,False,False,False,True,,,,,,1,"{'ho': 1.0, 'se': 2.0, 'na': 3.0, 'ki': 4.0}",1-2-4-1,3-4,2,2.0,mul,4.0,2.0,False,inf,idk,bad,bad,False
27971,61e0598baa09f84b60e4b8a7,run1,generalization,,13,,,,13,61df8999cc7c1c6984f5f11d,61e0547e264eec745690138c,$1.89,189.0,,,13.0,4.0,na-ki-ho,hosekina,True,,{},1642092489118.0,,,,21.279,,1642091920745.0,1642092939937.0,,,,,,mul_sf,,1,nan,,,,,,,,,True,True,False,False,False,False,False,False,False,False,True,,,,,,1,"{'ho': 1.0, 'se': 2.0, 'na': 3.0, 'ki': 4.0}",1-2-4-3,3-4-1,3,0.0,mul,3.0,2.0,True,0.0,mul,mul,mul_sf,False
27972,61e0598baa09f84b60e4b8a7,run1,generalization,,13,,,,13,61df8999cc7c1c6984f5f11d,61e0547e264eec745690138c,$1.89,189.0,,,14.0,4.0,na-ki-se,hosekise,False,,{},1642092489118.0,,,,18.832,,1642091920745.0,1642092939937.0,,,,,,mul,,1,nan,,,,,,,,,True,True,False,False,False,False,False,False,False,False,True,,,,,,1,"{'ho': 1.0, 'se': 2.0, 'na': 3.0, 'ki': 4.0}",1-2-4-2,3-4-2,3,4.0,mul,5.0,4.0,False,inf,idk,bad,bad,False
27973,61e0598baa09f84b60e4b8a7,run1,generalization,,13,,,,13,61df8999cc7c1c6984f5f11d,61e0547e264eec745690138c,$1.89,189.0,,,15.0,4.0,na-ki-na,hosekiki,False,,{},1642092489118.0,,,,7.688,,1642091920745.0,1642092939937.0,,,,,,mul,,1,nan,,,,,,,,,True,True,False,False,False,False,False,False,False,False,True,,,,,,1,"{'ho': 1.0, 'se': 2.0, 'na': 3.0, 'ki': 4.0}",1-2-4-4,3-4-3,3,3.0,mul,4.0,3.0,False,inf,idk,bad,bad,False
27984,620c1bb0abf99347211723f2,run1,generalization,,14,,,,14,61df8999cc7c1c6984f5f11d,620c190bc5290c920d43ea61,$1.94,194.0,,,11.0,4.0,he-no-tu,tunosi,False,,{},1644960532489.0,,,,,,1644960250025.0,1644960687501.0,,,,,,mul,,1,nan,,,,,,,,,True,True,False,False,False,False,False,False,False,False,True,,,,,,1,"{'si': 1.0, 'he': 2.0, 'tu': 3.0, 'no': 4.0}",3-4-1,2-4-3,3,2.0,mul,3.0,2.0,False,inf,idk,bad,bad,False
27985,620c1bb0abf99347211723f2,run1,generalization,,14,,,,14,61df8999cc7c1c6984f5f11d,620c190bc5290c920d43ea61,$1.94,194.0,,,12.0,4.0,tu-no,tunohe,True,,{},1644960532489.0,,,,1.566,,1644960250025.0,1644960687501.0,,,,,,add_sf,,1,nan,,,,,,,,,True,True,False,False,False,False,False,False,False,False,True,,,,,,1,"{'si': 1.0, 'he': 2.0, 'tu': 3.0, 'no': 4.0}",3-4-2,3-4,2,0.0,add,3.0,2.0,True,0.0,add,add,add_sf,False
27986,620c1bb0abf99347211723f2,run1,generalization,,14,,,,14,61df8999cc7c1c6984f5f11d,620c190bc5290c920d43ea61,$1.94,194.0,,,13.0,4.0,tu-no-si,tunotu,True,,{},1644960532489.0,,,,5.453,,1644960250025.0,1644960687501.0,,,,,,add_sf,,1,nan,,,,,,,,,True,True,False,False,False,False,False,False,False,False,True,,,,,,1,"{'si': 1.0, 'he': 2.0, 'tu': 3.0, 'no': 4.0}",3-4-3,3-4-1,3,0.0,add,3.0,2.0,True,0.0,add,add,add_sf,False
27987,620c1bb0abf99347211723f2,run1,generalization,,14,,,,14,61df8999cc7c1c6984f5f11d,620c190bc5290c920d43ea61,$1.94,194.0,,,14.0,4.0,tu-no-he,nonosi,False,,{},1644960532489.0,,,,1.397,,1644960250025.0,1644960687501.0,,,,,,mul,,1,nan,,,,,,,,,True,True,False,False,False,False,False,False,False,False,True,,,,,,1,"{'si': 1.0, 'he': 2.0, 'tu': 3.0, 'no': 4.0}",4-4-1,3-4-2,3,5.0,mul,5.0,5.0,False,inf,idk,bad,bad,False
27988,620c1bb0abf99347211723f2,run1,generalization,,14,,,,14,61df8999cc7c1c6984f5f11d,620c190bc5290c920d43ea61,$1.94,194.0,,,15.0,4.0,tu-no-tu,nonohe,True,,{},1644960532489.0,,,,2.593,,1644960250025.0,1644960687501.0,,,,,,add_sf,,1,nan,,,,,,,,,True,True,False,False,False,False,False,False,False,False,True,,,,,,1,"{'si': 1.0, 'he': 2.0, 'tu': 3.0, 'no': 4.0}",4-4-2,3-4-3,3,0.0,add,5.0,5.0,True,0.0,add,add,add_sf,False
27999,620c1c54abf99347211724c0,run1,generalization,,15,,,,15,61df8999cc7c1c6984f5f11d,620c19ddf904c4dd69df2bfb,$1.95,195.0,,,11.0,2.0,sa-ko-tu,sakotu,True,,"{'1644960716912': 'blurred', '1644960718494': 'focused'}",1644960709440.0,,,,9.811,,1644960292658.0,1644960852784.0,,,,,,add,,1,nan,,,,,,,,,True,True,False,False,False,False,True,False,False,False,True,,,,,,1,"{'tu': 1.0, 'ko': 2.0, 'ni': 4.0, 'sa': 8.0}",8-2-1,8-2-1,3,0.0,add,0.0,0.0,False,inf,idk,add,add,True
28000,620c1c54abf99347211724c0,run1,generalization,,15,,,,15,61df8999cc7c1c6984f5f11d,620c19ddf904c4dd69df2bfb,$1.95,195.0,,,12.0,2.0,sa-ni,sakoko,True,,"{'1644960716912': 'blurred', '1644960718494': 'focused'}",1644960709440.0,,,,,,1644960292658.0,1644960852784.0,,,,,,add,,1,nan,,,,,,,,,True,True,False,False,False,False,True,False,False,False,True,,,,,,1,"{'tu': 1.0, 'ko': 2.0, 'ni': 4.0, 'sa': 8.0}",8-2-2,8-4,2,0.0,add,0.0,0.0,False,inf,idk,add,add,False
28001,620c1c54abf99347211724c0,run1,generalization,,15,,,,15,61df8999cc7c1c6984f5f11d,620c19ddf904c4dd69df2bfb,$1.95,195.0,,,13.0,2.0,sa-ni-tu,sanitu,True,,"{'1644960716912': 'blurred', '1644960718494': 'focused'}",1644960709440.0,,,,12.23,,1644960292658.0,1644960852784.0,,,,,,add,,1,nan,,,,,,,,,True,True,False,False,False,False,True,False,False,False,True,,,,,,1,"{'tu': 1.0, 'ko': 2.0, 'ni': 4.0, 'sa': 8.0}",8-4-1,8-4-1,3,0.0,add,0.0,0.0,False,inf,idk,add,add,True
28002,620c1c54abf99347211724c0,run1,generalization,,15,,,,15,61df8999cc7c1c6984f5f11d,620c19ddf904c4dd69df2bfb,$1.95,195.0,,,14.0,2.0,sa-ni-ko,saniko,True,,"{'1644960716912': 'blurred', '1644960718494': 'focused'}",1644960709440.0,,,,23.478,,1644960292658.0,1644960852784.0,,,,,,add,,1,nan,,,,,,,,,True,True,False,False,False,False,True,False,False,False,True,,,,,,1,"{'tu': 1.0, 'ko': 2.0, 'ni': 4.0, 'sa': 8.0}",8-4-2,8-4-2,3,0.0,add,0.0,0.0,False,inf,idk,add,add,True
28003,620c1c54abf99347211724c0,run1,generalization,,15,,,,15,61df8999cc7c1c6984f5f11d,620c19ddf904c4dd69df2bfb,$1.95,195.0,,,15.0,2.0,sa-ni-ko-tu,sanituko,True,,"{'1644960716912': 'blurred', '1644960718494': 'focused'}",1644960709440.0,,,,4.74,,1644960292658.0,1644960852784.0,,,,,,add,,1,nan,,,,,,,,,True,True,False,False,False,False,True,False,False,False,True,,,,,,1,"{'tu': 1.0, 'ko': 2.0, 'ni': 4.0, 'sa': 8.0}",8-4-1-2,8-4-2-1,4,0.0,add,0.0,1.0,False,inf,idk,add,add,False
28014,620c1c72abf99347211724d9,run1,generalization,,16,,,,16,61df8999cc7c1c6984f5f11d,620c19f566d0c6a54d9f0e7b,$1.95,195.0,,,11.0,2.0,ha-ko-te,hakote,True,,{},1644960640233.0,,,,,,1644960416002.0,1644960882171.0,,,,,,add,,1,nan,,,,,,,,,True,True,False,False,False,False,False,False,False,False,True,,,,,,1,"{'te': 1.0, 'ko': 2.0, 'nu': 4.0, 'ha': 8.0}",8-2-1,8-2-1,3,0.0,add,0.0,0.0,False,inf,idk,add,add,True
28015,620c1c72abf99347211724d9,run1,generalization,,16,,,,16,61df8999cc7c1c6984f5f11d,620c19f566d0c6a54d9f0e7b,$1.95,195.0,,,12.0,2.0,ha-nu,hakoko,True,,{},1644960640233.0,,,,,,1644960416002.0,1644960882171.0,,,,,,add,,1,nan,,,,,,,,,True,True,False,False,False,False,False,False,False,False,True,,,,,,1,"{'te': 1.0, 'ko': 2.0, 'nu': 4.0, 'ha': 8.0}",8-2-2,8-4,2,0.0,add,0.0,0.0,False,inf,idk,add,add,False
28016,620c1c72abf99347211724d9,run1,generalization,,16,,,,16,61df8999cc7c1c6984f5f11d,620c19f566d0c6a54d9f0e7b,$1.95,195.0,,,13.0,2.0,ha-nu-te,hakokote,True,,{},1644960640233.0,,,,27.099,,1644960416002.0,1644960882171.0,,,,,,add,,1,nan,,,,,,,,,True,True,False,False,False,False,False,False,False,False,True,,,,,,1,"{'te': 1.0, 'ko': 2.0, 'nu': 4.0, 'ha': 8.0}",8-2-2-1,8-4-1,3,0.0,add,0.0,0.0,False,inf,idk,add,add,False
28017,620c1c72abf99347211724d9,run1,generalization,,16,,,,16,61df8999cc7c1c6984f5f11d,620c19f566d0c6a54d9f0e7b,$1.95,195.0,,,14.0,2.0,ha-nu-ko,hakonu,True,,{},1644960640233.0,,,,10.538,,1644960416002.0,1644960882171.0,,,,,,add,,1,nan,,,,,,,,,True,True,False,False,False,False,False,False,False,False,True,,,,,,1,"{'te': 1.0, 'ko': 2.0, 'nu': 4.0, 'ha': 8.0}",8-2-4,8-4-2,3,0.0,add,0.0,2.0,False,inf,idk,add,add,False
28018,620c1c72abf99347211724d9,run1,generalization,,16,,,,16,61df8999cc7c1c6984f5f11d,620c19f566d0c6a54d9f0e7b,$1.95,195.0,,,15.0,2.0,ha-nu-ko-te,hakonute,True,,{},1644960640233.0,,,,13.85,,1644960416002.0,1644960882171.0,,,,,,add,,1,nan,,,,,,,,,True,True,False,False,False,False,False,False,False,False,True,,,,,,1,"{'te': 1.0, 'ko': 2.0, 'nu': 4.0, 'ha': 8.0}",8-2-4-1,8-4-2-1,4,0.0,add,0.0,2.0,False,0.0,mul,add,add,False
28029,620c1d04abf9934721172525,run1,generalization,,19,,,,19,61df8999cc7c1c6984f5f11d,620c1a61499992ed14a40bdc,$1.95,195.0,,,11.0,5.0,hi-no-tu,nohi,True,,"{'1644960919729': 'blurred', '1644960923296': 'focused'}",1644960906125.0,,,,14.178,,1644960501094.0,1644961028729.0,,,,,,add_sf,,1,nan,,,,,,,,,True,True,False,False,False,False,True,False,False,False,True,,,,,,1,"{'tu': 1.0, 'hi': 2.0, 'ka': 3.0, 'se': 4.0, 'no': 5.0}",5-2,2-5-1,3,0.0,add,4.0,4.0,True,0.0,add,add,add_sf,False
28030,620c1d04abf9934721172525,run1,generalization,,19,,,,19,61df8999cc7c1c6984f5f11d,620c1a61499992ed14a40bdc,$1.95,195.0,,,12.0,5.0,hi-no-hi,noka,True,,"{'1644960919729': 'blurred', '1644960923296': 'focused'}",1644960906125.0,,,,4.631,,1644960501094.0,1644961028729.0,,,,,,add_sf,,1,nan,,,,,,,,,True,True,False,False,False,False,True,False,False,False,True,,,,,,1,"{'tu': 1.0, 'hi': 2.0, 'ka': 3.0, 'se': 4.0, 'no': 5.0}",5-3,2-5-2,3,0.0,add,4.0,4.0,True,0.0,add,add,add_sf,False
28031,620c1d04abf9934721172525,run1,generalization,,19,,,,19,61df8999cc7c1c6984f5f11d,620c1a61499992ed14a40bdc,$1.95,195.0,,,13.0,5.0,hi-no-ka,nose,True,,"{'1644960919729': 'blurred', '1644960923296': 'focused'}",1644960906125.0,,,,1.683,,1644960501094.0,1644961028729.0,,,,,,add_sf,,1,nan,,,,,,,,,True,True,False,False,False,False,True,False,False,False,True,,,,,,1,"{'tu': 1.0, 'hi': 2.0, 'ka': 3.0, 'se': 4.0, 'no': 5.0}",5-4,2-5-3,3,0.0,add,4.0,4.0,True,0.0,add,add,add_sf,False
28032,620c1d04abf9934721172525,run1,generalization,,19,,,,19,61df8999cc7c1c6984f5f11d,620c1a61499992ed14a40bdc,$1.95,195.0,,,14.0,5.0,hi-no-se,nono,True,,"{'1644960919729': 'blurred', '1644960923296': 'focused'}",1644960906125.0,,,,5.766,,1644960501094.0,1644961028729.0,,,,,,add_sf,,1,nan,,,,,,,,,True,True,False,False,False,False,True,False,False,False,True,,,,,,1,"{'tu': 1.0, 'hi': 2.0, 'ka': 3.0, 'se': 4.0, 'no': 5.0}",5-5,2-5-4,3,0.0,add,4.0,4.0,True,0.0,add,add,add_sf,False
28033,620c1d04abf9934721172525,run1,generalization,,19,,,,19,61df8999cc7c1c6984f5f11d,620c1a61499992ed14a40bdc,$1.95,195.0,,,15.0,5.0,ka-no,notuhi,False,,"{'1644960919729': 'blurred', '1644960923296': 'focused'}",1644960906125.0,,,,19.033,,1644960501094.0,1644961028729.0,,,,,,add,,1,nan,,,,,,,,,True,True,False,False,False,False,True,False,False,False,True,,,,,,1,"{'tu': 1.0, 'hi': 2.0, 'ka': 3.0, 'se': 4.0, 'no': 5.0}",5-1-2,3-5,2,7.0,add,7.0,8.0,False,inf,idk,bad,bad,False
28044,620c1d5babf993472117252d,run1,generalization,,18,,,,18,61df8999cc7c1c6984f5f11d,620c1a75f64f7e941685034d,$1.95,195.0,,,11.0,2.0,ka-ho-se,kahose,True,,{},1644960842609.0,,,,30.636,,1644960489296.0,1644961115273.0,,,,,,add,,1,nan,,,,,,,,,True,True,False,False,False,False,False,False,False,False,True,,,,,,1,"{'se': 1.0, 'ho': 2.0, 'tu': 4.0, 'ka': 8.0}",8-2-1,8-2-1,3,0.0,add,0.0,0.0,False,inf,idk,add,add,True
28045,620c1d5babf993472117252d,run1,generalization,,18,,,,18,61df8999cc7c1c6984f5f11d,620c1a75f64f7e941685034d,$1.95,195.0,,,12.0,2.0,ka-tu,katu,True,,{},1644960842609.0,,,,,,1644960489296.0,1644961115273.0,,,,,,add,,1,nan,,,,,,,,,True,True,False,False,False,False,False,False,False,False,True,,,,,,1,"{'se': 1.0, 'ho': 2.0, 'tu': 4.0, 'ka': 8.0}",8-4,8-4,2,0.0,add,0.0,0.0,False,inf,idk,add,add,True
28046,620c1d5babf993472117252d,run1,generalization,,18,,,,18,61df8999cc7c1c6984f5f11d,620c1a75f64f7e941685034d,$1.95,195.0,,,13.0,2.0,ka-tu-se,katuse,True,,{},1644960842609.0,,,,,,1644960489296.0,1644961115273.0,,,,,,add,,1,nan,,,,,,,,,True,True,False,False,False,False,False,False,False,False,True,,,,,,1,"{'se': 1.0, 'ho': 2.0, 'tu': 4.0, 'ka': 8.0}",8-4-1,8-4-1,3,0.0,add,0.0,0.0,False,inf,idk,add,add,True
28047,620c1d5babf993472117252d,run1,generalization,,18,,,,18,61df8999cc7c1c6984f5f11d,620c1a75f64f7e941685034d,$1.95,195.0,,,14.0,2.0,ka-tu-ho,katuho,True,,{},1644960842609.0,,,,24.983,,1644960489296.0,1644961115273.0,,,,,,add,,1,nan,,,,,,,,,True,True,False,False,False,False,False,False,False,False,True,,,,,,1,"{'se': 1.0, 'ho': 2.0, 'tu': 4.0, 'ka': 8.0}",8-4-2,8-4-2,3,0.0,add,0.0,0.0,False,inf,idk,add,add,True
28048,620c1d5babf993472117252d,run1,generalization,,18,,,,18,61df8999cc7c1c6984f5f11d,620c1a75f64f7e941685034d,$1.95,195.0,,,15.0,2.0,ka-tu-ho-se,katuhose,True,,{},1644960842609.0,,,,13.265,,1644960489296.0,1644961115273.0,,,,,,add,,1,nan,,,,,,,,,True,True,False,False,False,False,False,False,False,False,True,,,,,,1,"{'se': 1.0, 'ho': 2.0, 'tu': 4.0, 'ka': 8.0}",8-4-2-1,8-4-2-1,4,0.0,add,0.0,0.0,False,inf,idk,add,add,True
28059,620c1dbaabf993472117252f,run1,generalization,,21,,,,21,61df8999cc7c1c6984f5f11d,620c19b64c6867defd6994b5,$1.95,195.0,,,11.0,4.0,to-ku-ne,tokune,True,,"{'1644961055433': 'blurred', '1644961065369': 'focused'}",1644961037155.0,,,,23.414,,1644960584096.0,1644961206002.0,,,,,,mul,,1,nan,,,,,,,,,True,True,False,False,False,False,True,False,False,False,True,,,,,,1,"{'ha': 1.0, 'to': 2.0, 'ne': 3.0, 'ku': 4.0}",2-4-3,2-4-3,3,0.0,mul,2.0,0.0,False,0.0,add,mul,mul,True
28060,620c1dbaabf993472117252f,run1,generalization,,21,,,,21,61df8999cc7c1c6984f5f11d,620c19b64c6867defd6994b5,$1.95,195.0,,,12.0,4.0,ne-ku,tokuku,True,,"{'1644961055433': 'blurred', '1644961065369': 'focused'}",1644961037155.0,,,,7.009,,1644960584096.0,1644961206002.0,,,,,,mul,,1,nan,,,,,,,,,True,True,False,False,False,False,True,False,False,False,True,,,,,,1,"{'ha': 1.0, 'to': 2.0, 'ne': 3.0, 'ku': 4.0}",2-4-4,3-4,2,0.0,mul,2.0,0.0,False,0.0,add,mul,mul,False
28061,620c1dbaabf993472117252f,run1,generalization,,21,,,,21,61df8999cc7c1c6984f5f11d,620c19b64c6867defd6994b5,$1.95,195.0,,,13.0,4.0,ne-ku-ha,tokukuha,True,,"{'1644961055433': 'blurred', '1644961065369': 'focused'}",1644961037155.0,,,,14.544,,1644960584096.0,1644961206002.0,,,,,,mul,,1,nan,,,,,,,,,True,True,False,False,False,False,True,False,False,False,True,,,,,,1,"{'ha': 1.0, 'to': 2.0, 'ne': 3.0, 'ku': 4.0}",2-4-4-1,3-4-1,3,0.0,mul,2.0,0.0,False,0.0,add,mul,mul,False
28062,620c1dbaabf993472117252f,run1,generalization,,21,,,,21,61df8999cc7c1c6984f5f11d,620c19b64c6867defd6994b5,$1.95,195.0,,,14.0,4.0,ne-ku-to,tokukuto,True,,"{'1644961055433': 'blurred', '1644961065369': 'focused'}",1644961037155.0,,,,8.433,,1644960584096.0,1644961206002.0,,,,,,mul,,1,nan,,,,,,,,,True,True,False,False,False,False,True,False,False,False,True,,,,,,1,"{'ha': 1.0, 'to': 2.0, 'ne': 3.0, 'ku': 4.0}",2-4-4-2,3-4-2,3,0.0,mul,2.0,0.0,False,0.0,add,mul,mul,False
28063,620c1dbaabf993472117252f,run1,generalization,,21,,,,21,61df8999cc7c1c6984f5f11d,620c19b64c6867defd6994b5,$1.95,195.0,,,15.0,4.0,ne-ku-ne,tokukune,True,,"{'1644961055433': 'blurred', '1644961065369': 'focused'}",1644961037155.0,,,,6.216,,1644960584096.0,1644961206002.0,,,,,,mul,,1,nan,,,,,,,,,True,True,False,False,False,False,True,False,False,False,True,,,,,,1,"{'ha': 1.0, 'to': 2.0, 'ne': 3.0, 'ku': 4.0}",2-4-4-3,3-4-3,3,0.0,mul,2.0,0.0,False,0.0,add,mul,mul,False
28074,620c1de4abf9934721172531,run1,generalization,,17,,,,17,61df8999cc7c1c6984f5f11d,620c1a4e4fbad27346561f3f,$1.95,195.0,,,11.0,4.0,he-ti-nu,hetihesa,True,,{},1644961055937.0,,,,19.505,,1644960456166.0,1644961251387.0,,,,,,mul,,1,nan,,,,,,,,,True,True,False,False,False,False,False,False,False,False,True,,,,,,1,"{'sa': 1.0, 'he': 2.0, 'nu': 3.0, 'ti': 4.0}",2-4-2-1,2-4-3,3,0.0,mul,2.0,0.0,False,0.0,add,mul,mul,False
28075,620c1de4abf9934721172531,run1,generalization,,17,,,,17,61df8999cc7c1c6984f5f11d,620c1a4e4fbad27346561f3f,$1.95,195.0,,,12.0,4.0,nu-ti,hetisa,False,,{},1644961055937.0,,,,15.551,,1644960456166.0,1644961251387.0,,,,,,mul,,1,nan,,,,,,,,,True,True,False,False,False,False,False,False,False,False,True,,,,,,1,"{'sa': 1.0, 'he': 2.0, 'nu': 3.0, 'ti': 4.0}",2-4-1,3-4,2,3.0,mul,5.0,3.0,False,inf,idk,bad,bad,False
28076,620c1de4abf9934721172531,run1,generalization,,17,,,,17,61df8999cc7c1c6984f5f11d,620c1a4e4fbad27346561f3f,$1.95,195.0,,,13.0,4.0,nu-ti-sa,nutisa,True,,{},1644961055937.0,,,,20.184,,1644960456166.0,1644961251387.0,,,,,,mul,,1,nan,,,,,,,,,True,True,False,False,False,False,False,False,False,False,True,,,,,,1,"{'sa': 1.0, 'he': 2.0, 'nu': 3.0, 'ti': 4.0}",3-4-1,3-4-1,3,0.0,mul,5.0,0.0,False,0.0,add,mul,mul,True
28077,620c1de4abf9934721172531,run1,generalization,,17,,,,17,61df8999cc7c1c6984f5f11d,620c1a4e4fbad27346561f3f,$1.95,195.0,,,14.0,4.0,nu-ti-he,hetiheti,False,,{},1644961055937.0,,,,20.152,,1644960456166.0,1644961251387.0,,,,,,mul,,1,nan,,,,,,,,,True,True,False,False,False,False,False,False,False,False,True,,,,,,1,"{'sa': 1.0, 'he': 2.0, 'nu': 3.0, 'ti': 4.0}",2-4-2-4,3-4-2,3,2.0,mul,2.0,2.0,False,inf,idk,bad,bad,False
28078,620c1de4abf9934721172531,run1,generalization,,17,,,,17,61df8999cc7c1c6984f5f11d,620c1a4e4fbad27346561f3f,$1.95,195.0,,,15.0,4.0,nu-ti-nu,nutisa,False,,{},1644961055937.0,,,,13.44,,1644960456166.0,1644961251387.0,,,,,,mul,,1,nan,,,,,,,,,True,True,False,False,False,False,False,False,False,False,True,,,,,,1,"{'sa': 1.0, 'he': 2.0, 'nu': 3.0, 'ti': 4.0}",3-4-1,3-4-3,3,2.0,mul,7.0,2.0,False,inf,idk,bad,bad,False
28089,620c1e1dabf9934721172534,run1,generalization,,20,,,,20,61df8999cc7c1c6984f5f11d,620c1a37da7f4e2ae55104ba,$1.95,195.0,,,11.0,4.0,no-he-ti,noheti,True,,{},1644960975281.0,,,,,,1644960576637.0,1644961309141.0,,,,,,mul,,1,nan,,,,,,,,,True,True,False,False,False,False,False,False,False,False,True,,,,,,1,"{'sa': 1.0, 'no': 2.0, 'ti': 3.0, 'he': 4.0}",2-4-3,2-4-3,3,0.0,mul,2.0,0.0,False,0.0,add,mul,mul,True
28090,620c1e1dabf9934721172534,run1,generalization,,20,,,,20,61df8999cc7c1c6984f5f11d,620c1a37da7f4e2ae55104ba,$1.95,195.0,,,12.0,4.0,ti-he,nohehe,True,,{},1644960975281.0,,,,,,1644960576637.0,1644961309141.0,,,,,,mul,,1,nan,,,,,,,,,True,True,False,False,False,False,False,False,False,False,True,,,,,,1,"{'sa': 1.0, 'no': 2.0, 'ti': 3.0, 'he': 4.0}",2-4-4,3-4,2,0.0,mul,2.0,0.0,False,0.0,add,mul,mul,False
28091,620c1e1dabf9934721172534,run1,generalization,,20,,,,20,61df8999cc7c1c6984f5f11d,620c1a37da7f4e2ae55104ba,$1.95,195.0,,,13.0,4.0,ti-he-sa,nohehesa,True,,{},1644960975281.0,,,,,,1644960576637.0,1644961309141.0,,,,,,mul,,1,nan,,,,,,,,,True,True,False,False,False,False,False,False,False,False,True,,,,,,1,"{'sa': 1.0, 'no': 2.0, 'ti': 3.0, 'he': 4.0}",2-4-4-1,3-4-1,3,0.0,mul,2.0,0.0,False,0.0,add,mul,mul,False
28092,620c1e1dabf9934721172534,run1,generalization,,20,,,,20,61df8999cc7c1c6984f5f11d,620c1a37da7f4e2ae55104ba,$1.95,195.0,,,14.0,4.0,ti-he-no,noheheno,True,,{},1644960975281.0,,,,,,1644960576637.0,1644961309141.0,,,,,,mul,,1,nan,,,,,,,,,True,True,False,False,False,False,False,False,False,False,True,,,,,,1,"{'sa': 1.0, 'no': 2.0, 'ti': 3.0, 'he': 4.0}",2-4-4-2,3-4-2,3,0.0,mul,2.0,0.0,False,0.0,add,mul,mul,False
28093,620c1e1dabf9934721172534,run1,generalization,,20,,,,20,61df8999cc7c1c6984f5f11d,620c1a37da7f4e2ae55104ba,$1.95,195.0,,,15.0,4.0,ti-he-ti,noheheti,True,,{},1644960975281.0,,,,6.57,,1644960576637.0,1644961309141.0,,,,,,mul,,1,nan,,,,,,,,,True,True,False,False,False,False,False,False,False,False,True,,,,,,1,"{'sa': 1.0, 'no': 2.0, 'ti': 3.0, 'he': 4.0}",2-4-4-3,3-4-3,3,0.0,mul,2.0,0.0,False,0.0,add,mul,mul,False
28104,620c2655abf9934721172708,run1,generalization,,22,,,,22,61df8999cc7c1c6984f5f11d,620c241fedf67da52050ae16,$1.92,192.0,,,11.0,5.0,ko-na-si,konasi,True,,{},1644963317149.0,,,,7.661,,1644962918495.0,1644963413556.0,,,,,,mul,,1,nan,,,,,,,,,True,True,False,False,False,False,False,False,False,False,True,,,,,,1,"{'si': 1.0, 'ko': 2.0, 'he': 3.0, 'tu': 4.0, 'na': 5.0}",2-5-1,2-5-1,3,0.0,mul,3.0,0.0,False,0.0,add,mul,mul,True
28105,620c2655abf9934721172708,run1,generalization,,22,,,,22,61df8999cc7c1c6984f5f11d,620c241fedf67da52050ae16,$1.92,192.0,,,12.0,5.0,ko-na-ko,konako,True,,{},1644963317149.0,,,,4.756,,1644962918495.0,1644963413556.0,,,,,,mul,,1,nan,,,,,,,,,True,True,False,False,False,False,False,False,False,False,True,,,,,,1,"{'si': 1.0, 'ko': 2.0, 'he': 3.0, 'tu': 4.0, 'na': 5.0}",2-5-2,2-5-2,3,0.0,mul,3.0,0.0,False,0.0,add,mul,mul,True
28106,620c2655abf9934721172708,run1,generalization,,22,,,,22,61df8999cc7c1c6984f5f11d,620c241fedf67da52050ae16,$1.92,192.0,,,13.0,5.0,ko-na-he,konahe,True,,{},1644963317149.0,,,,14.955,,1644962918495.0,1644963413556.0,,,,,,mul,,1,nan,,,,,,,,,True,True,False,False,False,False,False,False,False,False,True,,,,,,1,"{'si': 1.0, 'ko': 2.0, 'he': 3.0, 'tu': 4.0, 'na': 5.0}",2-5-3,2-5-3,3,0.0,mul,3.0,0.0,False,0.0,add,mul,mul,True
28107,620c2655abf9934721172708,run1,generalization,,22,,,,22,61df8999cc7c1c6984f5f11d,620c241fedf67da52050ae16,$1.92,192.0,,,14.0,5.0,ko-na-tu,konatu,True,,{},1644963317149.0,,,,14.206,,1644962918495.0,1644963413556.0,,,,,,mul,,1,nan,,,,,,,,,True,True,False,False,False,False,False,False,False,False,True,,,,,,1,"{'si': 1.0, 'ko': 2.0, 'he': 3.0, 'tu': 4.0, 'na': 5.0}",2-5-4,2-5-4,3,0.0,mul,3.0,0.0,False,0.0,add,mul,mul,True
28108,620c2655abf9934721172708,run1,generalization,,22,,,,22,61df8999cc7c1c6984f5f11d,620c241fedf67da52050ae16,$1.92,192.0,,,15.0,5.0,he-na,hena,True,,{},1644963317149.0,,,,9.201,,1644962918495.0,1644963413556.0,,,,,,mul,,1,nan,,,,,,,,,True,True,False,False,False,False,False,False,False,False,True,,,,,,1,"{'si': 1.0, 'ko': 2.0, 'he': 3.0, 'tu': 4.0, 'na': 5.0}",3-5,3-5,2,0.0,mul,7.0,0.0,False,inf,idk,mul,mul,True
28119,620c26fdabf99347211727bf,run1,generalization,,24,,,,24,61df8999cc7c1c6984f5f11d,620c24b4e4d0b50ab0793155,$1.95,195.0,,,11.0,5.0,hi-sa-ku,hiku,False,,{},1644963458024.0,,,,,,1644963141829.0,1644963581575.0,,,,,,add,,1,nan,,,,,,,,,True,True,False,False,False,False,False,False,False,False,True,,,,,,1,"{'ku': 1.0, 'hi': 2.0, 'no': 3.0, 'te': 4.0, 'sa': 5.0}",2-1,2-5-1,3,8.0,add,8.0,8.0,False,inf,idk,bad,bad,False
28120,620c26fdabf99347211727bf,run1,generalization,,24,,,,24,61df8999cc7c1c6984f5f11d,620c24b4e4d0b50ab0793155,$1.95,195.0,,,12.0,5.0,hi-sa-hi,hihi,True,,{},1644963458024.0,,,,4.125,,1644963141829.0,1644963581575.0,,,,,,add_sf,,1,nan,,,,,,,,,True,True,False,False,False,False,False,False,False,False,True,,,,,,1,"{'ku': 1.0, 'hi': 2.0, 'no': 3.0, 'te': 4.0, 'sa': 5.0}",2-2,2-5-2,3,0.0,add,8.0,8.0,True,0.0,add,add,add_sf,False
28121,620c26fdabf99347211727bf,run1,generalization,,24,,,,24,61df8999cc7c1c6984f5f11d,620c24b4e4d0b50ab0793155,$1.95,195.0,,,13.0,5.0,hi-sa-no,hino,True,,{},1644963458024.0,,,,2.199,,1644963141829.0,1644963581575.0,,,,,,add_sf,,1,nan,,,,,,,,,True,True,False,False,False,False,False,False,False,False,True,,,,,,1,"{'ku': 1.0, 'hi': 2.0, 'no': 3.0, 'te': 4.0, 'sa': 5.0}",2-3,2-5-3,3,0.0,add,8.0,7.0,True,0.0,add,add,add_sf,False
28122,620c26fdabf99347211727bf,run1,generalization,,24,,,,24,61df8999cc7c1c6984f5f11d,620c24b4e4d0b50ab0793155,$1.95,195.0,,,14.0,5.0,hi-sa-te,hite,True,,{},1644963458024.0,,,,3.993,,1644963141829.0,1644963581575.0,,,,,,add_sf,,1,nan,,,,,,,,,True,True,False,False,False,False,False,False,False,False,True,,,,,,1,"{'ku': 1.0, 'hi': 2.0, 'no': 3.0, 'te': 4.0, 'sa': 5.0}",2-4,2-5-4,3,0.0,add,8.0,6.0,True,0.0,add,add,add_sf,False
28123,620c26fdabf99347211727bf,run1,generalization,,24,,,,24,61df8999cc7c1c6984f5f11d,620c24b4e4d0b50ab0793155,$1.95,195.0,,,15.0,5.0,no-sa,hisa,True,,{},1644963458024.0,,,,3.963,,1644963141829.0,1644963581575.0,,,,,,add_sf,,1,nan,,,,,,,,,True,True,False,False,False,False,False,False,False,False,True,,,,,,1,"{'ku': 1.0, 'hi': 2.0, 'no': 3.0, 'te': 4.0, 'sa': 5.0}",2-5,3-5,2,0.0,add,8.0,5.0,True,0.0,add,add,add_sf,False
28134,620c2772abf99347211727e7,run1,generalization,,25,,,,25,61df8999cc7c1c6984f5f11d,620c259fb8f55b65abc790de,$1.94,194.0,,,11.0,5.0,ho-se-tu,kise,True,,"{'1644963581020': 'blurred', '1644963583367': 'focused'}",1644963572247.0,,,,,,1644963283563.0,1644963698134.0,,,,,,add_sf,,1,nan,,,,,,,,,True,True,False,False,False,False,True,False,False,False,True,,,,,,1,"{'tu': 1.0, 'ho': 2.0, 'ki': 3.0, 'na': 4.0, 'se': 5.0}",3-5,2-5-1,3,0.0,add,3.0,4.0,True,0.0,add,add,add_sf,False
28135,620c2772abf99347211727e7,run1,generalization,,25,,,,25,61df8999cc7c1c6984f5f11d,620c259fb8f55b65abc790de,$1.94,194.0,,,12.0,5.0,ho-se-ho,nase,True,,"{'1644963581020': 'blurred', '1644963583367': 'focused'}",1644963572247.0,,,,3.712,,1644963283563.0,1644963698134.0,,,,,,add_sf,,1,nan,,,,,,,,,True,True,False,False,False,False,True,False,False,False,True,,,,,,1,"{'tu': 1.0, 'ho': 2.0, 'ki': 3.0, 'na': 4.0, 'se': 5.0}",4-5,2-5-2,3,0.0,add,3.0,8.0,True,0.0,add,add,add_sf,False
28136,620c2772abf99347211727e7,run1,generalization,,25,,,,25,61df8999cc7c1c6984f5f11d,620c259fb8f55b65abc790de,$1.94,194.0,,,13.0,5.0,ho-se-ki,sese,True,,"{'1644963581020': 'blurred', '1644963583367': 'focused'}",1644963572247.0,,,,28.689,,1644963283563.0,1644963698134.0,,,,,,add_sf,,1,nan,,,,,,,,,True,True,False,False,False,False,True,False,False,False,True,,,,,,1,"{'tu': 1.0, 'ho': 2.0, 'ki': 3.0, 'na': 4.0, 'se': 5.0}",5-5,2-5-3,3,0.0,add,3.0,3.0,True,0.0,add,add,add_sf,False
28137,620c2772abf99347211727e7,run1,generalization,,25,,,,25,61df8999cc7c1c6984f5f11d,620c259fb8f55b65abc790de,$1.94,194.0,,,14.0,5.0,ho-se-na,sese,False,,"{'1644963581020': 'blurred', '1644963583367': 'focused'}",1644963572247.0,,,,7.272,,1644963283563.0,1644963698134.0,,,,,,add,,1,nan,,,,,,,,,True,True,False,False,False,False,True,False,False,False,True,,,,,,1,"{'tu': 1.0, 'ho': 2.0, 'ki': 3.0, 'na': 4.0, 'se': 5.0}",5-5,2-5-4,3,4.0,add,4.0,4.0,False,inf,idk,bad,bad,False
28138,620c2772abf99347211727e7,run1,generalization,,25,,,,25,61df8999cc7c1c6984f5f11d,620c259fb8f55b65abc790de,$1.94,194.0,,,15.0,5.0,ki-se,sese,False,,"{'1644963581020': 'blurred', '1644963583367': 'focused'}",1644963572247.0,,,,0.831,,1644963283563.0,1644963698134.0,,,,,,add,,1,nan,,,,,,,,,True,True,False,False,False,False,True,False,False,False,True,,,,,,1,"{'tu': 1.0, 'ho': 2.0, 'ki': 3.0, 'na': 4.0, 'se': 5.0}",5-5,3-5,2,5.0,add,5.0,5.0,False,inf,idk,bad,bad,False
28149,620c3bd0abf9934721172a28,run1,generalization,,27,,,,27,61df8999cc7c1c6984f5f11d,620c3a34a38401d773a8e8c4,$1.92,192.0,,,11.0,2.0,ko-ni-su,konisu,True,,"{'1644968841654': 'blurred', '1644968841806': 'blurred', '1644968842901': 'focused'}",1644968835520.0,,,,17.803,,1644968541066.0,1644968912301.0,,,,,,add,,1,nan,,,,,,,,,True,True,False,False,False,False,True,False,False,False,True,,,,,,1,"{'su': 1.0, 'ni': 2.0, 'he': 4.0, 'ko': 8.0}",8-2-1,8-2-1,3,0.0,add,0.0,0.0,False,inf,idk,add,add,True
28150,620c3bd0abf9934721172a28,run1,generalization,,27,,,,27,61df8999cc7c1c6984f5f11d,620c3a34a38401d773a8e8c4,$1.92,192.0,,,12.0,2.0,ko-he,s,False,,"{'1644968841654': 'blurred', '1644968841806': 'blurred', '1644968842901': 'focused'}",1644968835520.0,,,,8.489,,1644968541066.0,1644968912301.0,,,,,,add,,1,nan,,,,,,,,,True,True,False,False,False,False,True,False,False,False,True,,,,,,1,"{'su': 1.0, 'ni': 2.0, 'he': 4.0, 'ko': 8.0}",s,8-4,2,12.0,add,12.0,12.0,False,inf,idk,bad,bad,False
28151,620c3bd0abf9934721172a28,run1,generalization,,27,,,,27,61df8999cc7c1c6984f5f11d,620c3a34a38401d773a8e8c4,$1.92,192.0,,,13.0,2.0,ko-he-su,s,False,,"{'1644968841654': 'blurred', '1644968841806': 'blurred', '1644968842901': 'focused'}",1644968835520.0,,,,0.694,,1644968541066.0,1644968912301.0,,,,,,add,,1,nan,,,,,,,,,True,True,False,False,False,False,True,False,False,False,True,,,,,,1,"{'su': 1.0, 'ni': 2.0, 'he': 4.0, 'ko': 8.0}",s,8-4-1,3,13.0,add,13.0,13.0,False,inf,idk,bad,bad,False
28152,620c3bd0abf9934721172a28,run1,generalization,,27,,,,27,61df8999cc7c1c6984f5f11d,620c3a34a38401d773a8e8c4,$1.92,192.0,,,14.0,2.0,ko-he-ni,s,False,,"{'1644968841654': 'blurred', '1644968841806': 'blurred', '1644968842901': 'focused'}",1644968835520.0,,,,0.573,,1644968541066.0,1644968912301.0,,,,,,add,,1,nan,,,,,,,,,True,True,False,False,False,False,True,False,False,False,True,,,,,,1,"{'su': 1.0, 'ni': 2.0, 'he': 4.0, 'ko': 8.0}",s,8-4-2,3,14.0,add,14.0,14.0,False,inf,idk,bad,bad,False
28153,620c3bd0abf9934721172a28,run1,generalization,,27,,,,27,61df8999cc7c1c6984f5f11d,620c3a34a38401d773a8e8c4,$1.92,192.0,,,15.0,2.0,ko-he-ni-su,s,False,,"{'1644968841654': 'blurred', '1644968841806': 'blurred', '1644968842901': 'focused'}",1644968835520.0,,,,0.608,,1644968541066.0,1644968912301.0,,,,,,add,,1,nan,,,,,,,,,True,True,False,False,False,False,True,False,False,False,True,,,,,,1,"{'su': 1.0, 'ni': 2.0, 'he': 4.0, 'ko': 8.0}",s,8-4-2-1,4,15.0,add,15.0,15.0,False,inf,idk,bad,bad,False
28164,6210146ae670ba66f0c1da09,run1,generalization,,28,,,,28,61df8999cc7c1c6984f5f11d,62101293c8358e3a9f6ed152,$1.95,195.0,,,11.0,4.0,he-ko-nu,hekonu,True,,{},1645220862937.0,,,,7.928,,1645220576374.0,1645220971338.0,,,,,,mul,,1,nan,,,,,,,,,True,True,False,False,False,False,False,False,False,False,True,,,,,,1,"{'ti': 1.0, 'he': 2.0, 'nu': 3.0, 'ko': 4.0}",2-4-3,2-4-3,3,0.0,mul,2.0,0.0,False,0.0,add,mul,mul,True
28165,6210146ae670ba66f0c1da09,run1,generalization,,28,,,,28,61df8999cc7c1c6984f5f11d,62101293c8358e3a9f6ed152,$1.95,195.0,,,12.0,4.0,nu-ko,nuko,True,,{},1645220862937.0,,,,27.664,,1645220576374.0,1645220971338.0,,,,,,mul,,1,nan,,,,,,,,,True,True,False,False,False,False,False,False,False,False,True,,,,,,1,"{'ti': 1.0, 'he': 2.0, 'nu': 3.0, 'ko': 4.0}",3-4,3-4,2,0.0,mul,5.0,0.0,False,inf,idk,mul,mul,True
28166,6210146ae670ba66f0c1da09,run1,generalization,,28,,,,28,61df8999cc7c1c6984f5f11d,62101293c8358e3a9f6ed152,$1.95,195.0,,,13.0,4.0,nu-ko-ti,nukoti,True,,{},1645220862937.0,,,,3.437,,1645220576374.0,1645220971338.0,,,,,,mul,,1,nan,,,,,,,,,True,True,False,False,False,False,False,False,False,False,True,,,,,,1,"{'ti': 1.0, 'he': 2.0, 'nu': 3.0, 'ko': 4.0}",3-4-1,3-4-1,3,0.0,mul,5.0,0.0,False,0.0,add,mul,mul,True
28167,6210146ae670ba66f0c1da09,run1,generalization,,28,,,,28,61df8999cc7c1c6984f5f11d,62101293c8358e3a9f6ed152,$1.95,195.0,,,14.0,4.0,nu-ko-he,nukohe,True,,{},1645220862937.0,,,,3.743,,1645220576374.0,1645220971338.0,,,,,,mul,,1,nan,,,,,,,,,True,True,False,False,False,False,False,False,False,False,True,,,,,,1,"{'ti': 1.0, 'he': 2.0, 'nu': 3.0, 'ko': 4.0}",3-4-2,3-4-2,3,0.0,mul,5.0,0.0,False,0.0,add,mul,mul,True
28168,6210146ae670ba66f0c1da09,run1,generalization,,28,,,,28,61df8999cc7c1c6984f5f11d,62101293c8358e3a9f6ed152,$1.95,195.0,,,15.0,4.0,nu-ko-nu,nukonu,True,,{},1645220862937.0,,,,4.302,,1645220576374.0,1645220971338.0,,,,,,mul,,1,nan,,,,,,,,,True,True,False,False,False,False,False,False,False,False,True,,,,,,1,"{'ti': 1.0, 'he': 2.0, 'nu': 3.0, 'ko': 4.0}",3-4-3,3-4-3,3,0.0,mul,5.0,0.0,False,0.0,add,mul,mul,True
28179,62101480e670ba66f0c1da0f,run1,generalization,,29,,,,29,61df8999cc7c1c6984f5f11d,621012b620c6c88777e2b769,$1.91,191.0,,,11.0,2.0,nu-he-ka,ka,False,,{},1645220928078.0,,,,10.895,,1645220640676.0,1645220991608.0,,,,,,add,,1,nan,,,,,,,,,True,True,False,False,False,False,False,False,False,False,True,,,,,,1,"{'ka': 1.0, 'he': 2.0, 'si': 4.0, 'nu': 8.0}",1,8-2-1,3,10.0,add,10.0,10.0,False,inf,idk,bad,bad,False
28180,62101480e670ba66f0c1da0f,run1,generalization,,29,,,,29,61df8999cc7c1c6984f5f11d,621012b620c6c88777e2b769,$1.91,191.0,,,12.0,2.0,nu-si,he,True,,{},1645220928078.0,,,,5.545,,1645220640676.0,1645220991608.0,,,,,,add_sf,,1,nan,,,,,,,,,True,True,False,False,False,False,False,False,False,False,True,,,,,,1,"{'ka': 1.0, 'he': 2.0, 'si': 4.0, 'nu': 8.0}",2,8-4,2,0.0,add,10.0,10.0,True,0.0,add,add,add_sf,False
28181,62101480e670ba66f0c1da0f,run1,generalization,,29,,,,29,61df8999cc7c1c6984f5f11d,621012b620c6c88777e2b769,$1.91,191.0,,,13.0,2.0,nu-si-ka,heka,True,,{},1645220928078.0,,,,3.017,,1645220640676.0,1645220991608.0,,,,,,add_sf,,1,nan,,,,,,,,,True,True,False,False,False,False,False,False,False,False,True,,,,,,1,"{'ka': 1.0, 'he': 2.0, 'si': 4.0, 'nu': 8.0}",2-1,8-4-1,3,0.0,add,10.0,10.0,True,0.0,add,add,add_sf,False
28182,62101480e670ba66f0c1da0f,run1,generalization,,29,,,,29,61df8999cc7c1c6984f5f11d,621012b620c6c88777e2b769,$1.91,191.0,,,14.0,2.0,nu-si-he,si,True,,{},1645220928078.0,,,,3.168,,1645220640676.0,1645220991608.0,,,,,,add_sf,,1,nan,,,,,,,,,True,True,False,False,False,False,False,False,False,False,True,,,,,,1,"{'ka': 1.0, 'he': 2.0, 'si': 4.0, 'nu': 8.0}",4,8-4-2,3,0.0,add,10.0,10.0,True,0.0,add,add,add_sf,False
28183,62101480e670ba66f0c1da0f,run1,generalization,,29,,,,29,61df8999cc7c1c6984f5f11d,621012b620c6c88777e2b769,$1.91,191.0,,,15.0,2.0,nu-si-he-ka,sika,True,,{},1645220928078.0,,,,1.717,,1645220640676.0,1645220991608.0,,,,,,add_sf,,1,nan,,,,,,,,,True,True,False,False,False,False,False,False,False,False,True,,,,,,1,"{'ka': 1.0, 'he': 2.0, 'si': 4.0, 'nu': 8.0}",4-1,8-4-2-1,4,0.0,add,10.0,10.0,True,0.0,add,add,add_sf,False
28194,621014dde670ba66f0c1da1e,run1,generalization,,31,,,,31,61df8999cc7c1c6984f5f11d,621012bd5867f8541228a3f2,$1.95,195.0,,,11.0,4.0,si-no-hu,sinohu,True,,{},1645221018507.0,,,,3.964,,1645220662737.0,1645221084644.0,,,,,,mul,,1,nan,,,,,,,,,True,True,False,False,False,False,False,False,False,False,True,,,,,,1,"{'ke': 1.0, 'si': 2.0, 'hu': 3.0, 'no': 4.0}",2-4-3,2-4-3,3,0.0,mul,2.0,0.0,False,0.0,add,mul,mul,True
28195,621014dde670ba66f0c1da1e,run1,generalization,,31,,,,31,61df8999cc7c1c6984f5f11d,621012bd5867f8541228a3f2,$1.95,195.0,,,12.0,4.0,hu-no,huno,True,,{},1645221018507.0,,,,17.631,,1645220662737.0,1645221084644.0,,,,,,mul,,1,nan,,,,,,,,,True,True,False,False,False,False,False,False,False,False,True,,,,,,1,"{'ke': 1.0, 'si': 2.0, 'hu': 3.0, 'no': 4.0}",3-4,3-4,2,0.0,mul,5.0,0.0,False,inf,idk,mul,mul,True
28196,621014dde670ba66f0c1da1e,run1,generalization,,31,,,,31,61df8999cc7c1c6984f5f11d,621012bd5867f8541228a3f2,$1.95,195.0,,,13.0,4.0,hu-no-ke,hunoke,True,,{},1645221018507.0,,,,3.282,,1645220662737.0,1645221084644.0,,,,,,mul,,1,nan,,,,,,,,,True,True,False,False,False,False,False,False,False,False,True,,,,,,1,"{'ke': 1.0, 'si': 2.0, 'hu': 3.0, 'no': 4.0}",3-4-1,3-4-1,3,0.0,mul,5.0,0.0,False,0.0,add,mul,mul,True
28197,621014dde670ba66f0c1da1e,run1,generalization,,31,,,,31,61df8999cc7c1c6984f5f11d,621012bd5867f8541228a3f2,$1.95,195.0,,,14.0,4.0,hu-no-si,hunosi,True,,{},1645221018507.0,,,,2.655,,1645220662737.0,1645221084644.0,,,,,,mul,,1,nan,,,,,,,,,True,True,False,False,False,False,False,False,False,False,True,,,,,,1,"{'ke': 1.0, 'si': 2.0, 'hu': 3.0, 'no': 4.0}",3-4-2,3-4-2,3,0.0,mul,5.0,0.0,False,0.0,add,mul,mul,True
28198,621014dde670ba66f0c1da1e,run1,generalization,,31,,,,31,61df8999cc7c1c6984f5f11d,621012bd5867f8541228a3f2,$1.95,195.0,,,15.0,4.0,hu-no-hu,hunohu,True,,{},1645221018507.0,,,,3.592,,1645220662737.0,1645221084644.0,,,,,,mul,,1,nan,,,,,,,,,True,True,False,False,False,False,False,False,False,False,True,,,,,,1,"{'ke': 1.0, 'si': 2.0, 'hu': 3.0, 'no': 4.0}",3-4-3,3-4-3,3,0.0,mul,5.0,0.0,False,0.0,add,mul,mul,True
28209,62101624e670ba66f0c1da2b,run1,generalization,,30,,,,30,61df8999cc7c1c6984f5f11d,621012c6e6cddda91e0e1ada,$1.95,195.0,,,11.0,4.0,ki-se-ha,kiseha,True,,"{'1645220968214': 'blurred', '1645220969897': 'focused', '1645221140725': 'blurred', '1645221143379': 'focused'}",1645220964129.0,,,,,,1645220648043.0,1645221411579.0,,,,,,mul,,1,nan,,,,,,,,,True,True,False,False,False,False,True,False,False,False,True,,,,,,1,"{'to': 1.0, 'ki': 2.0, 'ha': 3.0, 'se': 4.0}",2-4-3,2-4-3,3,0.0,mul,2.0,0.0,False,0.0,add,mul,mul,True
28210,62101624e670ba66f0c1da2b,run1,generalization,,30,,,,30,61df8999cc7c1c6984f5f11d,621012c6e6cddda91e0e1ada,$1.95,195.0,,,12.0,4.0,ha-se,tokise,False,,"{'1645220968214': 'blurred', '1645220969897': 'focused', '1645221140725': 'blurred', '1645221143379': 'focused'}",1645220964129.0,,,,28.074,,1645220648043.0,1645221411579.0,,,,,,mul,,1,nan,,,,,,,,,True,True,False,False,False,False,True,False,False,False,True,,,,,,1,"{'to': 1.0, 'ki': 2.0, 'ha': 3.0, 'se': 4.0}",1-2-4,3-4,2,3.0,mul,5.0,3.0,False,inf,idk,bad,bad,False
28211,62101624e670ba66f0c1da2b,run1,generalization,,30,,,,30,61df8999cc7c1c6984f5f11d,621012c6e6cddda91e0e1ada,$1.95,195.0,,,13.0,4.0,ha-se-to,tokiseto,True,,"{'1645220968214': 'blurred', '1645220969897': 'focused', '1645221140725': 'blurred', '1645221143379': 'focused'}",1645220964129.0,,,,,,1645220648043.0,1645221411579.0,,,,,,add_sf,,1,nan,,,,,,,,,True,True,False,False,False,False,True,False,False,False,True,,,,,,1,"{'to': 1.0, 'ki': 2.0, 'ha': 3.0, 'se': 4.0}",1-2-4-1,3-4-1,3,0.0,add,5.0,3.0,True,0.0,add,add,add_sf,False
28212,62101624e670ba66f0c1da2b,run1,generalization,,30,,,,30,61df8999cc7c1c6984f5f11d,621012c6e6cddda91e0e1ada,$1.95,195.0,,,14.0,4.0,ha-se-ki,tokiseki,True,,"{'1645220968214': 'blurred', '1645220969897': 'focused', '1645221140725': 'blurred', '1645221143379': 'focused'}",1645220964129.0,,,,10.796,,1645220648043.0,1645221411579.0,,,,,,add_sf,,1,nan,,,,,,,,,True,True,False,False,False,False,True,False,False,False,True,,,,,,1,"{'to': 1.0, 'ki': 2.0, 'ha': 3.0, 'se': 4.0}",1-2-4-2,3-4-2,3,0.0,add,5.0,4.0,True,0.0,add,add,add_sf,False
28213,62101624e670ba66f0c1da2b,run1,generalization,,30,,,,30,61df8999cc7c1c6984f5f11d,621012c6e6cddda91e0e1ada,$1.95,195.0,,,15.0,4.0,ha-se-ha,tokiseha,True,,"{'1645220968214': 'blurred', '1645220969897': 'focused', '1645221140725': 'blurred', '1645221143379': 'focused'}",1645220964129.0,,,,14.521,,1645220648043.0,1645221411579.0,,,,,,add_sf,,1,nan,,,,,,,,,True,True,False,False,False,False,True,False,False,False,True,,,,,,1,"{'to': 1.0, 'ki': 2.0, 'ha': 3.0, 'se': 4.0}",1-2-4-3,3-4-3,3,0.0,add,5.0,4.0,True,0.0,add,add,add_sf,False
28224,6210178ee670ba66f0c1db6b,run1,generalization,,33,,,,33,61df8999cc7c1c6984f5f11d,621015db1a0da2ea051c5470,$1.94,194.0,,,11.0,5.0,so-nu-hi,sonuhi,True,,{},1645221679444.0,,,,13.979,,1645221415539.0,1645221774123.0,,,,,,mul,,1,nan,,,,,,,,,True,True,False,False,False,False,False,False,False,False,True,,,,,,1,"{'hi': 1.0, 'so': 2.0, 'ke': 3.0, 'ta': 4.0, 'nu': 5.0}",2-5-1,2-5-1,3,0.0,mul,3.0,0.0,False,0.0,add,mul,mul,True
28225,6210178ee670ba66f0c1db6b,run1,generalization,,33,,,,33,61df8999cc7c1c6984f5f11d,621015db1a0da2ea051c5470,$1.94,194.0,,,12.0,5.0,so-nu-so,sonuso,True,,{},1645221679444.0,,,,6.024,,1645221415539.0,1645221774123.0,,,,,,mul,,1,nan,,,,,,,,,True,True,False,False,False,False,False,False,False,False,True,,,,,,1,"{'hi': 1.0, 'so': 2.0, 'ke': 3.0, 'ta': 4.0, 'nu': 5.0}",2-5-2,2-5-2,3,0.0,mul,3.0,0.0,False,0.0,add,mul,mul,True
28226,6210178ee670ba66f0c1db6b,run1,generalization,,33,,,,33,61df8999cc7c1c6984f5f11d,621015db1a0da2ea051c5470,$1.94,194.0,,,13.0,5.0,so-nu-ke,sonuke,True,,{},1645221679444.0,,,,6.747,,1645221415539.0,1645221774123.0,,,,,,mul,,1,nan,,,,,,,,,True,True,False,False,False,False,False,False,False,False,True,,,,,,1,"{'hi': 1.0, 'so': 2.0, 'ke': 3.0, 'ta': 4.0, 'nu': 5.0}",2-5-3,2-5-3,3,0.0,mul,3.0,0.0,False,0.0,add,mul,mul,True
28227,6210178ee670ba66f0c1db6b,run1,generalization,,33,,,,33,61df8999cc7c1c6984f5f11d,621015db1a0da2ea051c5470,$1.94,194.0,,,14.0,5.0,so-nu-ta,sonuta,True,,{},1645221679444.0,,,,3.72,,1645221415539.0,1645221774123.0,,,,,,mul,,1,nan,,,,,,,,,True,True,False,False,False,False,False,False,False,False,True,,,,,,1,"{'hi': 1.0, 'so': 2.0, 'ke': 3.0, 'ta': 4.0, 'nu': 5.0}",2-5-4,2-5-4,3,0.0,mul,3.0,0.0,False,0.0,add,mul,mul,True
28228,6210178ee670ba66f0c1db6b,run1,generalization,,33,,,,33,61df8999cc7c1c6984f5f11d,621015db1a0da2ea051c5470,$1.94,194.0,,,15.0,5.0,ke-nu,kenu,True,,{},1645221679444.0,,,,5.832,,1645221415539.0,1645221774123.0,,,,,,mul,,1,nan,,,,,,,,,True,True,False,False,False,False,False,False,False,False,True,,,,,,1,"{'hi': 1.0, 'so': 2.0, 'ke': 3.0, 'ta': 4.0, 'nu': 5.0}",3-5,3-5,2,0.0,mul,7.0,0.0,False,inf,idk,mul,mul,True
28239,621017d2e670ba66f0c1db87,run1,generalization,,32,,,,32,61df8999cc7c1c6984f5f11d,621015cc4f0a63b56a99484a,$1.67,167.0,,,11.0,4.0,no-su-ha, nonosu,False,,"{'1645221733645': 'blurred', '1645221735316': 'focused', '1645221768301': 'blurred', '1645221770516': 'focused'}",1645221728878.0,,,,7.712,,1645221371572.0,1645221842871.0,,,,,,mul,,1,nan,,,,,,,,,True,True,False,False,False,False,True,False,False,False,True,,,,,,1,"{'ki': 1.0, 'no': 2.0, 'ha': 3.0, 'su': 4.0}", -2-2-4,2-4-3,3,1.0,mul,3.0,1.0,False,inf,idk,bad,bad,False
28240,621017d2e670ba66f0c1db87,run1,generalization,,32,,,,32,61df8999cc7c1c6984f5f11d,621015cc4f0a63b56a99484a,$1.67,167.0,,,12.0,4.0,ha-su,nosuha,True,,"{'1645221733645': 'blurred', '1645221735316': 'focused', '1645221768301': 'blurred', '1645221770516': 'focused'}",1645221728878.0,,,,20.68,,1645221371572.0,1645221842871.0,,,,,,add_sf,,1,nan,,,,,,,,,True,True,False,False,False,False,True,False,False,False,True,,,,,,1,"{'ki': 1.0, 'no': 2.0, 'ha': 3.0, 'su': 4.0}",2-4-3,3-4,2,0.0,add,3.0,1.0,True,0.0,add,add,add_sf,False
28241,621017d2e670ba66f0c1db87,run1,generalization,,32,,,,32,61df8999cc7c1c6984f5f11d,621015cc4f0a63b56a99484a,$1.67,167.0,,,13.0,4.0,ha-su-ki,sunosuki,True,,"{'1645221733645': 'blurred', '1645221735316': 'focused', '1645221768301': 'blurred', '1645221770516': 'focused'}",1645221728878.0,,,,2.976,,1645221371572.0,1645221842871.0,,,,,,mul,,1,nan,,,,,,,,,True,True,False,False,False,False,True,False,False,False,True,,,,,,1,"{'ki': 1.0, 'no': 2.0, 'ha': 3.0, 'su': 4.0}",4-2-4-1,3-4-1,3,0.0,mul,2.0,0.0,False,inf,idk,mul,mul,False
28242,621017d2e670ba66f0c1db87,run1,generalization,,32,,,,32,61df8999cc7c1c6984f5f11d,621015cc4f0a63b56a99484a,$1.67,167.0,,,14.0,4.0,ha-su-no,sunosuno,True,,"{'1645221733645': 'blurred', '1645221735316': 'focused', '1645221768301': 'blurred', '1645221770516': 'focused'}",1645221728878.0,,,,6.448,,1645221371572.0,1645221842871.0,,,,,,mul,,1,nan,,,,,,,,,True,True,False,False,False,False,True,False,False,False,True,,,,,,1,"{'ki': 1.0, 'no': 2.0, 'ha': 3.0, 'su': 4.0}",4-2-4-2,3-4-2,3,0.0,mul,2.0,0.0,False,0.0,add,mul,mul,False
28243,621017d2e670ba66f0c1db87,run1,generalization,,32,,,,32,61df8999cc7c1c6984f5f11d,621015cc4f0a63b56a99484a,$1.67,167.0,,,15.0,4.0,ha-su-ha,nosunoha,False,,"{'1645221733645': 'blurred', '1645221735316': 'focused', '1645221768301': 'blurred', '1645221770516': 'focused'}",1645221728878.0,,,,3.384,,1645221371572.0,1645221842871.0,,,,,,mul,,1,nan,,,,,,,,,True,True,False,False,False,False,True,False,False,False,True,,,,,,1,"{'ki': 1.0, 'no': 2.0, 'ha': 3.0, 'su': 4.0}",2-4-2-3,3-4-3,3,1.0,mul,4.0,1.0,False,inf,idk,bad,bad,False
28254,6210181ae670ba66f0c1db99,run1,generalization,,34,,,,34,61df8999cc7c1c6984f5f11d,62101620bfbb99460099a9fe,$1.95,195.0,,,11.0,4.0,hi-so-ku,hisoku,True,,{},1645221780937.0,,,,,,1645221460508.0,1645221918231.0,,,,,,mul,,1,nan,,,,,,,,,True,True,False,False,False,False,False,False,False,False,True,,,,,,1,"{'ta': 1.0, 'hi': 2.0, 'ku': 3.0, 'so': 4.0}",2-4-3,2-4-3,3,0.0,mul,2.0,0.0,False,0.0,add,mul,mul,True
28255,6210181ae670ba66f0c1db99,run1,generalization,,34,,,,34,61df8999cc7c1c6984f5f11d,62101620bfbb99460099a9fe,$1.95,195.0,,,12.0,4.0,ku-so,hisoso,True,,{},1645221780937.0,,,,21.045,,1645221460508.0,1645221918231.0,,,,,,mul,,1,nan,,,,,,,,,True,True,False,False,False,False,False,False,False,False,True,,,,,,1,"{'ta': 1.0, 'hi': 2.0, 'ku': 3.0, 'so': 4.0}",2-4-4,3-4,2,0.0,mul,2.0,0.0,False,0.0,add,mul,mul,False
28256,6210181ae670ba66f0c1db99,run1,generalization,,34,,,,34,61df8999cc7c1c6984f5f11d,62101620bfbb99460099a9fe,$1.95,195.0,,,13.0,4.0,ku-so-ta,hisosota,True,,{},1645221780937.0,,,,12.405,,1645221460508.0,1645221918231.0,,,,,,mul,,1,nan,,,,,,,,,True,True,False,False,False,False,False,False,False,False,True,,,,,,1,"{'ta': 1.0, 'hi': 2.0, 'ku': 3.0, 'so': 4.0}",2-4-4-1,3-4-1,3,0.0,mul,2.0,0.0,False,0.0,add,mul,mul,False
28257,6210181ae670ba66f0c1db99,run1,generalization,,34,,,,34,61df8999cc7c1c6984f5f11d,62101620bfbb99460099a9fe,$1.95,195.0,,,14.0,4.0,ku-so-hi,hisohiso,True,,{},1645221780937.0,,,,8.364,,1645221460508.0,1645221918231.0,,,,,,add_sf,,1,nan,,,,,,,,,True,True,False,False,False,False,False,False,False,False,True,,,,,,1,"{'ta': 1.0, 'hi': 2.0, 'ku': 3.0, 'so': 4.0}",2-4-2-4,3-4-2,3,0.0,add,2.0,2.0,True,0.0,add,add,add_sf,False
28258,6210181ae670ba66f0c1db99,run1,generalization,,34,,,,34,61df8999cc7c1c6984f5f11d,62101620bfbb99460099a9fe,$1.95,195.0,,,15.0,4.0,ku-so-ku,hisohisota,True,,{},1645221780937.0,,,,14.207,,1645221460508.0,1645221918231.0,,,,,,add_sf,,1,nan,,,,,,,,,True,True,False,False,False,False,False,False,False,False,True,,,,,,1,"{'ta': 1.0, 'hi': 2.0, 'ku': 3.0, 'so': 4.0}",2-4-2-4-1,3-4-3,3,0.0,add,2.0,2.0,True,0.0,add,add,add_sf,False
28269,62101882e670ba66f0c1dba3,run1,generalization,,36,,,,36,61df8999cc7c1c6984f5f11d,62101612390e90d139ef2c96,$1.95,195.0,,,11.0,4.0,hu-te-si,hutesi,True,,{},1645221864693.0,,,,3.278,,1645221562812.0,1645222017000.0,,,,,,mul,,1,nan,,,,,,,,,True,True,False,False,False,False,False,False,False,False,True,,,,,,1,"{'no': 1.0, 'hu': 2.0, 'si': 3.0, 'te': 4.0}",2-4-3,2-4-3,3,0.0,mul,2.0,0.0,False,0.0,add,mul,mul,True
28270,62101882e670ba66f0c1dba3,run1,generalization,,36,,,,36,61df8999cc7c1c6984f5f11d,62101612390e90d139ef2c96,$1.95,195.0,,,12.0,4.0,si-te,siteno,False,,{},1645221864693.0,,,,13.257,,1645221562812.0,1645222017000.0,,,,,,mul,,1,nan,,,,,,,,,True,True,False,False,False,False,False,False,False,False,True,,,,,,1,"{'no': 1.0, 'hu': 2.0, 'si': 3.0, 'te': 4.0}",3-4-1,3-4,2,1.0,mul,4.0,1.0,False,inf,idk,bad,bad,False
28271,62101882e670ba66f0c1dba3,run1,generalization,,36,,,,36,61df8999cc7c1c6984f5f11d,62101612390e90d139ef2c96,$1.95,195.0,,,13.0,4.0,si-te-no,sitehu,True,,{},1645221864693.0,,,,4.643,,1645221562812.0,1645222017000.0,,,,,,add_sf,,1,nan,,,,,,,,,True,True,False,False,False,False,False,False,False,False,True,,,,,,1,"{'no': 1.0, 'hu': 2.0, 'si': 3.0, 'te': 4.0}",3-4-2,3-4-1,3,0.0,add,4.0,1.0,True,0.0,add,add,add_sf,False
28272,62101882e670ba66f0c1dba3,run1,generalization,,36,,,,36,61df8999cc7c1c6984f5f11d,62101612390e90d139ef2c96,$1.95,195.0,,,14.0,4.0,si-te-hu,sitesi,True,,{},1645221864693.0,,,,7.727,,1645221562812.0,1645222017000.0,,,,,,add_sf,,1,nan,,,,,,,,,True,True,False,False,False,False,False,False,False,False,True,,,,,,1,"{'no': 1.0, 'hu': 2.0, 'si': 3.0, 'te': 4.0}",3-4-3,3-4-2,3,0.0,add,4.0,1.0,True,0.0,add,add,add_sf,False
28273,62101882e670ba66f0c1dba3,run1,generalization,,36,,,,36,61df8999cc7c1c6984f5f11d,62101612390e90d139ef2c96,$1.95,195.0,,,15.0,4.0,si-te-si,teteno,False,,{},1645221864693.0,,,,,,1645221562812.0,1645222017000.0,,,,,,mul,,1,nan,,,,,,,,,True,True,False,False,False,False,False,False,False,False,True,,,,,,1,"{'no': 1.0, 'hu': 2.0, 'si': 3.0, 'te': 4.0}",4-4-1,3-4-3,3,6.0,mul,6.0,6.0,False,inf,idk,bad,bad,False
28284,621019c9e670ba66f0c1dbbc,run1,generalization,,35,,,,35,61df8999cc7c1c6984f5f11d,621015f6d10bc6961234cbb7,$1.87,187.0,,,11.0,2.0,no-ha-ku,nohaku,True,,{},1645222181337.0,,,,29.678,,1645221487002.0,1645222344035.0,,,,,,add,,1,nan,,,,,,,,,True,True,False,False,False,False,False,False,False,False,True,,,,,,1,"{'ku': 1.0, 'ha': 2.0, 'se': 4.0, 'no': 8.0}",8-2-1,8-2-1,3,0.0,add,0.0,0.0,False,inf,idk,add,add,True
28285,621019c9e670ba66f0c1dbbc,run1,generalization,,35,,,,35,61df8999cc7c1c6984f5f11d,621015f6d10bc6961234cbb7,$1.87,187.0,,,12.0,2.0,no-se,nohaha,True,,{},1645222181337.0,,,,4.889,,1645221487002.0,1645222344035.0,,,,,,add,,1,nan,,,,,,,,,True,True,False,False,False,False,False,False,False,False,True,,,,,,1,"{'ku': 1.0, 'ha': 2.0, 'se': 4.0, 'no': 8.0}",8-2-2,8-4,2,0.0,add,0.0,0.0,False,inf,idk,add,add,False
28286,621019c9e670ba66f0c1dbbc,run1,generalization,,35,,,,35,61df8999cc7c1c6984f5f11d,621015f6d10bc6961234cbb7,$1.87,187.0,,,13.0,2.0,no-se-ku,nohahaku,True,,{},1645222181337.0,,,,24.036,,1645221487002.0,1645222344035.0,,,,,,add,,1,nan,,,,,,,,,True,True,False,False,False,False,False,False,False,False,True,,,,,,1,"{'ku': 1.0, 'ha': 2.0, 'se': 4.0, 'no': 8.0}",8-2-2-1,8-4-1,3,0.0,add,0.0,0.0,False,inf,idk,add,add,False
28287,621019c9e670ba66f0c1dbbc,run1,generalization,,35,,,,35,61df8999cc7c1c6984f5f11d,621015f6d10bc6961234cbb7,$1.87,187.0,,,14.0,2.0,no-se-ha,nohase,True,,{},1645222181337.0,,,,5.135,,1645221487002.0,1645222344035.0,,,,,,add,,1,nan,,,,,,,,,True,True,False,False,False,False,False,False,False,False,True,,,,,,1,"{'ku': 1.0, 'ha': 2.0, 'se': 4.0, 'no': 8.0}",8-2-4,8-4-2,3,0.0,add,0.0,2.0,False,inf,idk,add,add,False
28288,621019c9e670ba66f0c1dbbc,run1,generalization,,35,,,,35,61df8999cc7c1c6984f5f11d,621015f6d10bc6961234cbb7,$1.87,187.0,,,15.0,2.0,no-se-ha-ku,nohaseku,True,,{},1645222181337.0,,,,6.575,,1645221487002.0,1645222344035.0,,,,,,add,,1,nan,,,,,,,,,True,True,False,False,False,False,False,False,False,False,True,,,,,,1,"{'ku': 1.0, 'ha': 2.0, 'se': 4.0, 'no': 8.0}",8-2-4-1,8-4-2-1,4,0.0,add,0.0,2.0,False,0.0,mul,add,add,False
28299,62101d73e670ba66f0c1dca1,run1,generalization,,37,,,,37,61df8999cc7c1c6984f5f11d,62101b9609cf4b86206a914c,$1.94,194.0,,,11.0,2.0,te-so-ki,tesoki,True,,{},1645222944913.0,,,,4.832,,1645222685020.0,1645223048111.0,,,,,,mul,,1,nan,,,,,,,,,True,True,False,False,False,False,False,False,False,False,True,,,,,,1,"{'ki': 1.0, 'so': 2.0, 'hu': 4.0, 'te': 8.0}",8-2-1,8-2-1,3,0.0,mul,0.0,0.0,False,inf,idk,mul,mul,True
28300,62101d73e670ba66f0c1dca1,run1,generalization,,37,,,,37,61df8999cc7c1c6984f5f11d,62101b9609cf4b86206a914c,$1.94,194.0,,,12.0,2.0,te-hu,tesokihu,False,,{},1645222944913.0,,,,18.528,,1645222685020.0,1645223048111.0,,,,,,mul,,1,nan,,,,,,,,,True,True,False,False,False,False,False,False,False,False,True,,,,,,1,"{'ki': 1.0, 'so': 2.0, 'hu': 4.0, 'te': 8.0}",8-2-1-4,8-4,2,2.0,mul,3.0,2.0,False,inf,idk,bad,bad,False
28301,62101d73e670ba66f0c1dca1,run1,generalization,,37,,,,37,61df8999cc7c1c6984f5f11d,62101b9609cf4b86206a914c,$1.94,194.0,,,13.0,2.0,te-hu-ki,husokite,False,,{},1645222944913.0,,,,20.552,,1645222685020.0,1645223048111.0,,,,,,mul,,1,nan,,,,,,,,,True,True,False,False,False,False,False,False,False,False,True,,,,,,1,"{'ki': 1.0, 'so': 2.0, 'hu': 4.0, 'te': 8.0}",4-2-1-8,8-4-1,3,1.0,mul,2.0,1.0,False,inf,idk,bad,bad,False
28302,62101d73e670ba66f0c1dca1,run1,generalization,,37,,,,37,61df8999cc7c1c6984f5f11d,62101b9609cf4b86206a914c,$1.94,194.0,,,14.0,2.0,te-hu-so,hukisote,False,,{},1645222944913.0,,,,9.391,,1645222685020.0,1645223048111.0,,,,,,add,,1,nan,,,,,,,,,True,True,False,False,False,False,False,False,False,False,True,,,,,,1,"{'ki': 1.0, 'so': 2.0, 'hu': 4.0, 'te': 8.0}",4-1-2-8,8-4-2,3,1.0,add,1.0,7.0,False,inf,idk,bad,bad,False
28303,62101d73e670ba66f0c1dca1,run1,generalization,,37,,,,37,61df8999cc7c1c6984f5f11d,62101b9609cf4b86206a914c,$1.94,194.0,,,15.0,2.0,te-hu-so-ki,,False,,{},1645222944913.0,,,,,,1645222685020.0,1645223048111.0,,,,,,mul,,1,nan,,,,,,,,,True,True,False,False,False,False,False,False,False,False,True,,,,,,1,"{'ki': 1.0, 'so': 2.0, 'hu': 4.0, 'te': 8.0}",,8-4-2-1,4,15.0,mul,15.0,15.0,False,inf,idk,bad,bad,False
28314,623392a4c991c97ec4faca04,run2,generalization,,39,,,,39,62338cbc1d10cf97e4bf7d32,623391393f1d538d87f90fec,$1.91,191.0,,,11.0,8.0,no-ga,noga,True,,{},1647546978425.0,,,,2.376,,1647546747449.0,1647547045983.0,,,,,,add,,1,nan,,,,,,,,,True,True,False,False,False,False,False,False,False,False,True,,,,,,1,"{'pe': 1.0, 'so': 2.0, 'ga': 3.0, 'ti': 4.0, 'za': 5.0, 'ju': 6.0, 'ki': 7.0, 'no': 8.0}",8-3,8-3,2,0.0,add,0.0,0.0,False,inf,idk,add,add,True
28315,623392a4c991c97ec4faca04,run2,generalization,,39,,,,39,62338cbc1d10cf97e4bf7d32,623391393f1d538d87f90fec,$1.91,191.0,,,12.0,8.0,no-ti,noti,True,,{},1647546978425.0,,,,2.607,,1647546747449.0,1647547045983.0,,,,,,add,,1,nan,,,,,,,,,True,True,False,False,False,False,False,False,False,False,True,,,,,,1,"{'pe': 1.0, 'so': 2.0, 'ga': 3.0, 'ti': 4.0, 'za': 5.0, 'ju': 6.0, 'ki': 7.0, 'no': 8.0}",8-4,8-4,2,0.0,add,0.0,0.0,False,inf,idk,add,add,True
28316,623392a4c991c97ec4faca04,run2,generalization,,39,,,,39,62338cbc1d10cf97e4bf7d32,623391393f1d538d87f90fec,$1.91,191.0,,,13.0,8.0,no-za,noza,True,,{},1647546978425.0,,,,11.545,,1647546747449.0,1647547045983.0,,,,,,add,,1,nan,,,,,,,,,True,True,False,False,False,False,False,False,False,False,True,,,,,,1,"{'pe': 1.0, 'so': 2.0, 'ga': 3.0, 'ti': 4.0, 'za': 5.0, 'ju': 6.0, 'ki': 7.0, 'no': 8.0}",8-5,8-5,2,0.0,add,0.0,0.0,False,inf,idk,add,add,True
28317,623392a4c991c97ec4faca04,run2,generalization,,39,,,,39,62338cbc1d10cf97e4bf7d32,623391393f1d538d87f90fec,$1.91,191.0,,,14.0,8.0,no-ju,noju,True,,{},1647546978425.0,,,,5.957,,1647546747449.0,1647547045983.0,,,,,,add,,1,nan,,,,,,,,,True,True,False,False,False,False,False,False,False,False,True,,,,,,1,"{'pe': 1.0, 'so': 2.0, 'ga': 3.0, 'ti': 4.0, 'za': 5.0, 'ju': 6.0, 'ki': 7.0, 'no': 8.0}",8-6,8-6,2,0.0,add,0.0,0.0,False,inf,idk,add,add,True
28318,623392a4c991c97ec4faca04,run2,generalization,,39,,,,39,62338cbc1d10cf97e4bf7d32,623391393f1d538d87f90fec,$1.91,191.0,,,15.0,8.0,no-ki,noki,True,,{},1647546978425.0,,,,1.833,,1647546747449.0,1647547045983.0,,,,,,add,,1,nan,,,,,,,,,True,True,False,False,False,False,False,False,False,False,True,,,,,,1,"{'pe': 1.0, 'so': 2.0, 'ga': 3.0, 'ti': 4.0, 'za': 5.0, 'ju': 6.0, 'ki': 7.0, 'no': 8.0}",8-7,8-7,2,0.0,add,0.0,0.0,False,inf,idk,add,add,True
28319,623392a4c991c97ec4faca04,run2,generalization,,39,,,,39,62338cbc1d10cf97e4bf7d32,623391393f1d538d87f90fec,$1.91,191.0,,,16.0,8.0,so-no,nono,True,,{},1647546978425.0,,,,2.798,,1647546747449.0,1647547045983.0,,,,,,add,,1,nan,,,,,,,,,True,True,False,False,False,False,False,False,False,False,True,,,,,,1,"{'pe': 1.0, 'so': 2.0, 'ga': 3.0, 'ti': 4.0, 'za': 5.0, 'ju': 6.0, 'ki': 7.0, 'no': 8.0}",8-8,2-8,2,0.0,add,0.0,0.0,False,inf,idk,add,add,False
28320,623392a4c991c97ec4faca04,run2,generalization,,39,,,,39,62338cbc1d10cf97e4bf7d32,623391393f1d538d87f90fec,$1.91,191.0,,,17.0,8.0,so-no-pe,nonope,True,,{},1647546978425.0,,,,2.095,,1647546747449.0,1647547045983.0,,,,,,add,,1,nan,,,,,,,,,True,True,False,False,False,False,False,False,False,False,True,,,,,,1,"{'pe': 1.0, 'so': 2.0, 'ga': 3.0, 'ti': 4.0, 'za': 5.0, 'ju': 6.0, 'ki': 7.0, 'no': 8.0}",8-8-1,2-8-1,3,0.0,add,0.0,0.0,False,inf,idk,add,add,False
28321,623392a4c991c97ec4faca04,run2,generalization,,39,,,,39,62338cbc1d10cf97e4bf7d32,623391393f1d538d87f90fec,$1.91,191.0,,,18.0,8.0,so-no-so,nonoso,True,,{},1647546978425.0,,,,8.117,,1647546747449.0,1647547045983.0,,,,,,add,,1,nan,,,,,,,,,True,True,False,False,False,False,False,False,False,False,True,,,,,,1,"{'pe': 1.0, 'so': 2.0, 'ga': 3.0, 'ti': 4.0, 'za': 5.0, 'ju': 6.0, 'ki': 7.0, 'no': 8.0}",8-8-2,2-8-2,3,0.0,add,0.0,0.0,False,inf,idk,add,add,False
28322,623392a4c991c97ec4faca04,run2,generalization,,39,,,,39,62338cbc1d10cf97e4bf7d32,623391393f1d538d87f90fec,$1.91,191.0,,,19.0,8.0,so-no-ga,nonope,False,,{},1647546978425.0,,,,2.328,,1647546747449.0,1647547045983.0,,,,,,add,,1,nan,,,,,,,,,True,True,False,False,False,False,False,False,False,False,True,,,,,,1,"{'pe': 1.0, 'so': 2.0, 'ga': 3.0, 'ti': 4.0, 'za': 5.0, 'ju': 6.0, 'ki': 7.0, 'no': 8.0}",8-8-1,2-8-3,3,2.0,add,2.0,2.0,False,inf,idk,bad,bad,False
28323,623392a4c991c97ec4faca04,run2,generalization,,39,,,,39,62338cbc1d10cf97e4bf7d32,623391393f1d538d87f90fec,$1.91,191.0,,,20.0,8.0,so-no-ti,nononoso,False,,{},1647546978425.0,,,,3.511,,1647546747449.0,1647547045983.0,,,,,,add,,1,nan,,,,,,,,,True,True,False,False,False,False,False,False,False,False,True,,,,,,1,"{'pe': 1.0, 'so': 2.0, 'ga': 3.0, 'ti': 4.0, 'za': 5.0, 'ju': 6.0, 'ki': 7.0, 'no': 8.0}",8-8-8-2,2-8-4,3,6.0,add,6.0,6.0,False,inf,idk,bad,bad,False
28334,623392e2c991c97ec4faca9d,run2,generalization,,42,,,,42,62338cbc1d10cf97e4bf7d32,6233912c9277768a6b94a4e3,$1.95,195.0,,,11.0,10.0,ge-jo,jojo,False,,{},1647547021333.0,,,,3.506,,1647546771448.0,1647547107604.0,,,,,,mul,,1,nan,,,,,,,,,True,True,False,False,False,False,False,False,False,False,True,,,,,,1,"{'jo': 1.0, 'zu': 2.0, 'ko': 3.0, 'na': 4.0, 'si': 5.0, 'pe': 6.0, 'ta': 7.0, 'hi': 8.0, 'du': 9.0, 'ge': 10.0}",1-1,10-1,2,9.0,mul,9.0,9.0,False,inf,idk,bad,bad,False
28335,623392e2c991c97ec4faca9d,run2,generalization,,42,,,,42,62338cbc1d10cf97e4bf7d32,6233912c9277768a6b94a4e3,$1.95,195.0,,,12.0,10.0,ge-zu,jozu,True,,{},1647547021333.0,,,,8.593,,1647546771448.0,1647547107604.0,,,,,,add_sf,,1,nan,,,,,,,,,True,True,False,False,False,False,False,False,False,False,True,,,,,,1,"{'jo': 1.0, 'zu': 2.0, 'ko': 3.0, 'na': 4.0, 'si': 5.0, 'pe': 6.0, 'ta': 7.0, 'hi': 8.0, 'du': 9.0, 'ge': 10.0}",1-2,10-2,2,0.0,add,9.0,10.0,True,0.0,add,add,add_sf,False
28336,623392e2c991c97ec4faca9d,run2,generalization,,42,,,,42,62338cbc1d10cf97e4bf7d32,6233912c9277768a6b94a4e3,$1.95,195.0,,,13.0,10.0,ge-ko,joko,True,,{},1647547021333.0,,,,3.966,,1647546771448.0,1647547107604.0,,,,,,add_sf,,1,nan,,,,,,,,,True,True,False,False,False,False,False,False,False,False,True,,,,,,1,"{'jo': 1.0, 'zu': 2.0, 'ko': 3.0, 'na': 4.0, 'si': 5.0, 'pe': 6.0, 'ta': 7.0, 'hi': 8.0, 'du': 9.0, 'ge': 10.0}",1-3,10-3,2,0.0,add,9.0,10.0,True,0.0,add,add,add_sf,False
28337,623392e2c991c97ec4faca9d,run2,generalization,,42,,,,42,62338cbc1d10cf97e4bf7d32,6233912c9277768a6b94a4e3,$1.95,195.0,,,14.0,10.0,ge-na,jona,True,,{},1647547021333.0,,,,4.804,,1647546771448.0,1647547107604.0,,,,,,add_sf,,1,nan,,,,,,,,,True,True,False,False,False,False,False,False,False,False,True,,,,,,1,"{'jo': 1.0, 'zu': 2.0, 'ko': 3.0, 'na': 4.0, 'si': 5.0, 'pe': 6.0, 'ta': 7.0, 'hi': 8.0, 'du': 9.0, 'ge': 10.0}",1-4,10-4,2,0.0,add,9.0,10.0,True,0.0,add,add,add_sf,False
28338,623392e2c991c97ec4faca9d,run2,generalization,,42,,,,42,62338cbc1d10cf97e4bf7d32,6233912c9277768a6b94a4e3,$1.95,195.0,,,15.0,10.0,ge-si,josi,True,,{},1647547021333.0,,,,4.149,,1647546771448.0,1647547107604.0,,,,,,add_sf,,1,nan,,,,,,,,,True,True,False,False,False,False,False,False,False,False,True,,,,,,1,"{'jo': 1.0, 'zu': 2.0, 'ko': 3.0, 'na': 4.0, 'si': 5.0, 'pe': 6.0, 'ta': 7.0, 'hi': 8.0, 'du': 9.0, 'ge': 10.0}",1-5,10-5,2,0.0,add,9.0,10.0,True,0.0,add,add,add_sf,False
28339,623392e2c991c97ec4faca9d,run2,generalization,,42,,,,42,62338cbc1d10cf97e4bf7d32,6233912c9277768a6b94a4e3,$1.95,195.0,,,16.0,10.0,ge-pe,jope,True,,{},1647547021333.0,,,,7.601,,1647546771448.0,1647547107604.0,,,,,,add_sf,,1,nan,,,,,,,,,True,True,False,False,False,False,False,False,False,False,True,,,,,,1,"{'jo': 1.0, 'zu': 2.0, 'ko': 3.0, 'na': 4.0, 'si': 5.0, 'pe': 6.0, 'ta': 7.0, 'hi': 8.0, 'du': 9.0, 'ge': 10.0}",1-6,10-6,2,0.0,add,9.0,10.0,True,0.0,add,add,add_sf,False
28340,623392e2c991c97ec4faca9d,run2,generalization,,42,,,,42,62338cbc1d10cf97e4bf7d32,6233912c9277768a6b94a4e3,$1.95,195.0,,,17.0,10.0,ge-ta,jota,True,,{},1647547021333.0,,,,4.109,,1647546771448.0,1647547107604.0,,,,,,add_sf,,1,nan,,,,,,,,,True,True,False,False,False,False,False,False,False,False,True,,,,,,1,"{'jo': 1.0, 'zu': 2.0, 'ko': 3.0, 'na': 4.0, 'si': 5.0, 'pe': 6.0, 'ta': 7.0, 'hi': 8.0, 'du': 9.0, 'ge': 10.0}",1-7,10-7,2,0.0,add,9.0,10.0,True,0.0,add,add,add_sf,False
28341,623392e2c991c97ec4faca9d,run2,generalization,,42,,,,42,62338cbc1d10cf97e4bf7d32,6233912c9277768a6b94a4e3,$1.95,195.0,,,18.0,10.0,ge-hi,johi,True,,{},1647547021333.0,,,,5.59,,1647546771448.0,1647547107604.0,,,,,,add_sf,,1,nan,,,,,,,,,True,True,False,False,False,False,False,False,False,False,True,,,,,,1,"{'jo': 1.0, 'zu': 2.0, 'ko': 3.0, 'na': 4.0, 'si': 5.0, 'pe': 6.0, 'ta': 7.0, 'hi': 8.0, 'du': 9.0, 'ge': 10.0}",1-8,10-8,2,0.0,add,9.0,10.0,True,0.0,add,add,add_sf,False
28342,623392e2c991c97ec4faca9d,run2,generalization,,42,,,,42,62338cbc1d10cf97e4bf7d32,6233912c9277768a6b94a4e3,$1.95,195.0,,,19.0,10.0,ge-du,jodu,True,,{},1647547021333.0,,,,4.405,,1647546771448.0,1647547107604.0,,,,,,add_sf,,1,nan,,,,,,,,,True,True,False,False,False,False,False,False,False,False,True,,,,,,1,"{'jo': 1.0, 'zu': 2.0, 'ko': 3.0, 'na': 4.0, 'si': 5.0, 'pe': 6.0, 'ta': 7.0, 'hi': 8.0, 'du': 9.0, 'ge': 10.0}",1-9,10-9,2,0.0,add,9.0,10.0,True,0.0,add,add,add_sf,False
28343,623392e2c991c97ec4faca9d,run2,generalization,,42,,,,42,62338cbc1d10cf97e4bf7d32,6233912c9277768a6b94a4e3,$1.95,195.0,,,20.0,10.0,zu-ge,zuge,True,,{},1647547021333.0,,,,7.382,,1647546771448.0,1647547107604.0,,,,,,mul,,1,nan,,,,,,,,,True,True,False,False,False,False,False,False,False,False,True,,,,,,1,"{'jo': 1.0, 'zu': 2.0, 'ko': 3.0, 'na': 4.0, 'si': 5.0, 'pe': 6.0, 'ta': 7.0, 'hi': 8.0, 'du': 9.0, 'ge': 10.0}",2-10,2-10,2,0.0,mul,8.0,0.0,False,inf,idk,mul,mul,True
28354,6233930bc991c97ec4facad9,run2,generalization,,46,,,,46,62338cbc1d10cf97e4bf7d32,62339144307f93c7655211ba,$1.94,194.0,,,11.0,8.0,pi-nu,pinu,True,,{},1647547043213.0,,,,7.264,,1647546800496.0,1647547147406.0,,,,,,add,,1,nan,,,,,,,,,True,True,False,False,False,False,False,False,False,False,True,,,,,,1,"{'za': 1.0, 'ji': 2.0, 'nu': 3.0, 'ta': 4.0, 'he': 5.0, 'so': 6.0, 'go': 7.0, 'pi': 8.0}",8-3,8-3,2,0.0,add,0.0,0.0,False,inf,idk,add,add,True
28355,6233930bc991c97ec4facad9,run2,generalization,,46,,,,46,62338cbc1d10cf97e4bf7d32,62339144307f93c7655211ba,$1.94,194.0,,,12.0,8.0,pi-ta,pita,True,,{},1647547043213.0,,,,13.536,,1647546800496.0,1647547147406.0,,,,,,add,,1,nan,,,,,,,,,True,True,False,False,False,False,False,False,False,False,True,,,,,,1,"{'za': 1.0, 'ji': 2.0, 'nu': 3.0, 'ta': 4.0, 'he': 5.0, 'so': 6.0, 'go': 7.0, 'pi': 8.0}",8-4,8-4,2,0.0,add,0.0,0.0,False,inf,idk,add,add,True
28356,6233930bc991c97ec4facad9,run2,generalization,,46,,,,46,62338cbc1d10cf97e4bf7d32,62339144307f93c7655211ba,$1.94,194.0,,,13.0,8.0,pi-he,pihe,True,,{},1647547043213.0,,,,3.807,,1647546800496.0,1647547147406.0,,,,,,add,,1,nan,,,,,,,,,True,True,False,False,False,False,False,False,False,False,True,,,,,,1,"{'za': 1.0, 'ji': 2.0, 'nu': 3.0, 'ta': 4.0, 'he': 5.0, 'so': 6.0, 'go': 7.0, 'pi': 8.0}",8-5,8-5,2,0.0,add,0.0,0.0,False,inf,idk,add,add,True
28357,6233930bc991c97ec4facad9,run2,generalization,,46,,,,46,62338cbc1d10cf97e4bf7d32,62339144307f93c7655211ba,$1.94,194.0,,,14.0,8.0,pi-so,piso,True,,{},1647547043213.0,,,,3.281,,1647546800496.0,1647547147406.0,,,,,,add,,1,nan,,,,,,,,,True,True,False,False,False,False,False,False,False,False,True,,,,,,1,"{'za': 1.0, 'ji': 2.0, 'nu': 3.0, 'ta': 4.0, 'he': 5.0, 'so': 6.0, 'go': 7.0, 'pi': 8.0}",8-6,8-6,2,0.0,add,0.0,0.0,False,inf,idk,add,add,True
28358,6233930bc991c97ec4facad9,run2,generalization,,46,,,,46,62338cbc1d10cf97e4bf7d32,62339144307f93c7655211ba,$1.94,194.0,,,15.0,8.0,pi-go,pigo,True,,{},1647547043213.0,,,,2.032,,1647546800496.0,1647547147406.0,,,,,,add,,1,nan,,,,,,,,,True,True,False,False,False,False,False,False,False,False,True,,,,,,1,"{'za': 1.0, 'ji': 2.0, 'nu': 3.0, 'ta': 4.0, 'he': 5.0, 'so': 6.0, 'go': 7.0, 'pi': 8.0}",8-7,8-7,2,0.0,add,0.0,0.0,False,inf,idk,add,add,True
28359,6233930bc991c97ec4facad9,run2,generalization,,46,,,,46,62338cbc1d10cf97e4bf7d32,62339144307f93c7655211ba,$1.94,194.0,,,16.0,8.0,ji-pi,pipi,True,,{},1647547043213.0,,,,3.262,,1647546800496.0,1647547147406.0,,,,,,add,,1,nan,,,,,,,,,True,True,False,False,False,False,False,False,False,False,True,,,,,,1,"{'za': 1.0, 'ji': 2.0, 'nu': 3.0, 'ta': 4.0, 'he': 5.0, 'so': 6.0, 'go': 7.0, 'pi': 8.0}",8-8,2-8,2,0.0,add,0.0,0.0,False,inf,idk,add,add,False
28360,6233930bc991c97ec4facad9,run2,generalization,,46,,,,46,62338cbc1d10cf97e4bf7d32,62339144307f93c7655211ba,$1.94,194.0,,,17.0,8.0,ji-pi-za,pipiza,True,,{},1647547043213.0,,,,13.744,,1647546800496.0,1647547147406.0,,,,,,add,,1,nan,,,,,,,,,True,True,False,False,False,False,False,False,False,False,True,,,,,,1,"{'za': 1.0, 'ji': 2.0, 'nu': 3.0, 'ta': 4.0, 'he': 5.0, 'so': 6.0, 'go': 7.0, 'pi': 8.0}",8-8-1,2-8-1,3,0.0,add,0.0,0.0,False,inf,idk,add,add,False
28361,6233930bc991c97ec4facad9,run2,generalization,,46,,,,46,62338cbc1d10cf97e4bf7d32,62339144307f93c7655211ba,$1.94,194.0,,,18.0,8.0,ji-pi-ji,pipiji,True,,{},1647547043213.0,,,,7.482,,1647546800496.0,1647547147406.0,,,,,,add,,1,nan,,,,,,,,,True,True,False,False,False,False,False,False,False,False,True,,,,,,1,"{'za': 1.0, 'ji': 2.0, 'nu': 3.0, 'ta': 4.0, 'he': 5.0, 'so': 6.0, 'go': 7.0, 'pi': 8.0}",8-8-2,2-8-2,3,0.0,add,0.0,0.0,False,inf,idk,add,add,False
28362,6233930bc991c97ec4facad9,run2,generalization,,46,,,,46,62338cbc1d10cf97e4bf7d32,62339144307f93c7655211ba,$1.94,194.0,,,19.0,8.0,ji-pi-nu,pipinupipita,False,,{},1647547043213.0,,,,7.12,,1647546800496.0,1647547147406.0,,,,,,add,,1,nan,,,,,,,,,True,True,False,False,False,False,False,False,False,False,True,,,,,,1,"{'za': 1.0, 'ji': 2.0, 'nu': 3.0, 'ta': 4.0, 'he': 5.0, 'so': 6.0, 'go': 7.0, 'pi': 8.0}",8-8-3-8-8-4,2-8-3,3,20.0,add,20.0,33.0,False,inf,idk,bad,bad,False
28363,6233930bc991c97ec4facad9,run2,generalization,,46,,,,46,62338cbc1d10cf97e4bf7d32,62339144307f93c7655211ba,$1.94,194.0,,,20.0,8.0,ji-pi-ta,pipihe,False,,{},1647547043213.0,,,,8.991,,1647546800496.0,1647547147406.0,,,,,,add,,1,nan,,,,,,,,,True,True,False,False,False,False,False,False,False,False,True,,,,,,1,"{'za': 1.0, 'ji': 2.0, 'nu': 3.0, 'ta': 4.0, 'he': 5.0, 'so': 6.0, 'go': 7.0, 'pi': 8.0}",8-8-5,2-8-4,3,1.0,add,1.0,1.0,False,inf,idk,bad,bad,False
28374,6233930ec991c97ec4facadd,run2,generalization,,45,,,,45,62338cbc1d10cf97e4bf7d32,6233913caea8b2ac3a54266a,$1.93,193.0,,,11.0,8.0,ne-ha,neha,True,,{},1647547048050.0,,,,3.051,,1647546795456.0,1647547148927.0,,,,,,add,,1,nan,,,,,,,,,True,True,False,False,False,False,False,False,False,False,True,,,,,,1,"{'ta': 1.0, 'jo': 2.0, 'ha': 3.0, 'su': 4.0, 'di': 5.0, 'ge': 6.0, 'zu': 7.0, 'ne': 8.0}",8-3,8-3,2,0.0,add,0.0,0.0,False,inf,idk,add,add,True
28375,6233930ec991c97ec4facadd,run2,generalization,,45,,,,45,62338cbc1d10cf97e4bf7d32,6233913caea8b2ac3a54266a,$1.93,193.0,,,12.0,8.0,ne-su,nesu,True,,{},1647547048050.0,,,,2.922,,1647546795456.0,1647547148927.0,,,,,,add,,1,nan,,,,,,,,,True,True,False,False,False,False,False,False,False,False,True,,,,,,1,"{'ta': 1.0, 'jo': 2.0, 'ha': 3.0, 'su': 4.0, 'di': 5.0, 'ge': 6.0, 'zu': 7.0, 'ne': 8.0}",8-4,8-4,2,0.0,add,0.0,0.0,False,inf,idk,add,add,True
28376,6233930ec991c97ec4facadd,run2,generalization,,45,,,,45,62338cbc1d10cf97e4bf7d32,6233913caea8b2ac3a54266a,$1.93,193.0,,,13.0,8.0,ne-di,nedi,True,,{},1647547048050.0,,,,3.674,,1647546795456.0,1647547148927.0,,,,,,add,,1,nan,,,,,,,,,True,True,False,False,False,False,False,False,False,False,True,,,,,,1,"{'ta': 1.0, 'jo': 2.0, 'ha': 3.0, 'su': 4.0, 'di': 5.0, 'ge': 6.0, 'zu': 7.0, 'ne': 8.0}",8-5,8-5,2,0.0,add,0.0,0.0,False,inf,idk,add,add,True
28377,6233930ec991c97ec4facadd,run2,generalization,,45,,,,45,62338cbc1d10cf97e4bf7d32,6233913caea8b2ac3a54266a,$1.93,193.0,,,14.0,8.0,ne-ge,nege,True,,{},1647547048050.0,,,,5.098,,1647546795456.0,1647547148927.0,,,,,,add,,1,nan,,,,,,,,,True,True,False,False,False,False,False,False,False,False,True,,,,,,1,"{'ta': 1.0, 'jo': 2.0, 'ha': 3.0, 'su': 4.0, 'di': 5.0, 'ge': 6.0, 'zu': 7.0, 'ne': 8.0}",8-6,8-6,2,0.0,add,0.0,0.0,False,inf,idk,add,add,True
28378,6233930ec991c97ec4facadd,run2,generalization,,45,,,,45,62338cbc1d10cf97e4bf7d32,6233913caea8b2ac3a54266a,$1.93,193.0,,,15.0,8.0,ne-zu,nezu,True,,{},1647547048050.0,,,,4.231,,1647546795456.0,1647547148927.0,,,,,,add,,1,nan,,,,,,,,,True,True,False,False,False,False,False,False,False,False,True,,,,,,1,"{'ta': 1.0, 'jo': 2.0, 'ha': 3.0, 'su': 4.0, 'di': 5.0, 'ge': 6.0, 'zu': 7.0, 'ne': 8.0}",8-7,8-7,2,0.0,add,0.0,0.0,False,inf,idk,add,add,True
28379,6233930ec991c97ec4facadd,run2,generalization,,45,,,,45,62338cbc1d10cf97e4bf7d32,6233913caea8b2ac3a54266a,$1.93,193.0,,,16.0,8.0,jo-ne,nene,True,,{},1647547048050.0,,,,3.99,,1647546795456.0,1647547148927.0,,,,,,add,,1,nan,,,,,,,,,True,True,False,False,False,False,False,False,False,False,True,,,,,,1,"{'ta': 1.0, 'jo': 2.0, 'ha': 3.0, 'su': 4.0, 'di': 5.0, 'ge': 6.0, 'zu': 7.0, 'ne': 8.0}",8-8,2-8,2,0.0,add,0.0,0.0,False,inf,idk,add,add,False
28380,6233930ec991c97ec4facadd,run2,generalization,,45,,,,45,62338cbc1d10cf97e4bf7d32,6233913caea8b2ac3a54266a,$1.93,193.0,,,17.0,8.0,jo-ne-ta,netata,False,,{},1647547048050.0,,,,3.915,,1647546795456.0,1647547148927.0,,,,,,add,,1,nan,,,,,,,,,True,True,False,False,False,False,False,False,False,False,True,,,,,,1,"{'ta': 1.0, 'jo': 2.0, 'ha': 3.0, 'su': 4.0, 'di': 5.0, 'ge': 6.0, 'zu': 7.0, 'ne': 8.0}",8-1-1,2-8-1,3,7.0,add,7.0,7.0,False,inf,idk,bad,bad,False
28381,6233930ec991c97ec4facadd,run2,generalization,,45,,,,45,62338cbc1d10cf97e4bf7d32,6233913caea8b2ac3a54266a,$1.93,193.0,,,18.0,8.0,jo-ne-jo,netajo,True,,{},1647547048050.0,,,,2.227,,1647546795456.0,1647547148927.0,,,,,,add_sf,,1,nan,,,,,,,,,True,True,False,False,False,False,False,False,False,False,True,,,,,,1,"{'ta': 1.0, 'jo': 2.0, 'ha': 3.0, 'su': 4.0, 'di': 5.0, 'ge': 6.0, 'zu': 7.0, 'ne': 8.0}",8-1-2,2-8-2,3,0.0,add,7.0,8.0,True,0.0,add,add,add_sf,False
28382,6233930ec991c97ec4facadd,run2,generalization,,45,,,,45,62338cbc1d10cf97e4bf7d32,6233913caea8b2ac3a54266a,$1.93,193.0,,,19.0,8.0,jo-ne-ha,netaha,True,,{},1647547048050.0,,,,4.501,,1647546795456.0,1647547148927.0,,,,,,add_sf,,1,nan,,,,,,,,,True,True,False,False,False,False,False,False,False,False,True,,,,,,1,"{'ta': 1.0, 'jo': 2.0, 'ha': 3.0, 'su': 4.0, 'di': 5.0, 'ge': 6.0, 'zu': 7.0, 'ne': 8.0}",8-1-3,2-8-3,3,0.0,add,7.0,8.0,True,0.0,add,add,add_sf,False
28383,6233930ec991c97ec4facadd,run2,generalization,,45,,,,45,62338cbc1d10cf97e4bf7d32,6233913caea8b2ac3a54266a,$1.93,193.0,,,20.0,8.0,jo-ne-su,netasu,True,,{},1647547048050.0,,,,3.407,,1647546795456.0,1647547148927.0,,,,,,add_sf,,1,nan,,,,,,,,,True,True,False,False,False,False,False,False,False,False,True,,,,,,1,"{'ta': 1.0, 'jo': 2.0, 'ha': 3.0, 'su': 4.0, 'di': 5.0, 'ge': 6.0, 'zu': 7.0, 'ne': 8.0}",8-1-4,2-8-4,3,0.0,add,7.0,8.0,True,0.0,add,add,add_sf,False
28394,62339311c991c97ec4facae1,run2,generalization,,38,,,,38,62338cbc1d10cf97e4bf7d32,6233913721a24a50e441bc00,$1.86,186.0,,,11.0,10.0,nu-ga,nuga,True,,{},1647547048987.0,,,,9.408,,1647546732080.0,1647547153213.0,,,,,,add,,1,nan,,,,,,,,,True,True,False,False,False,False,False,False,False,False,True,,,,,,1,"{'ga': 1.0, 'ke': 2.0, 'to': 3.0, 'so': 4.0, 'di': 5.0, 'pi': 6.0, 'ja': 7.0, 'ze': 8.0, 'hu': 9.0, 'nu': 10.0}",10-1,10-1,2,0.0,add,0.0,0.0,False,inf,idk,add,add,True
28395,62339311c991c97ec4facae1,run2,generalization,,38,,,,38,62338cbc1d10cf97e4bf7d32,6233913721a24a50e441bc00,$1.86,186.0,,,12.0,10.0,nu-ke,nuke,True,,{},1647547048987.0,,,,3.274,,1647546732080.0,1647547153213.0,,,,,,add,,1,nan,,,,,,,,,True,True,False,False,False,False,False,False,False,False,True,,,,,,1,"{'ga': 1.0, 'ke': 2.0, 'to': 3.0, 'so': 4.0, 'di': 5.0, 'pi': 6.0, 'ja': 7.0, 'ze': 8.0, 'hu': 9.0, 'nu': 10.0}",10-2,10-2,2,0.0,add,0.0,0.0,False,inf,idk,add,add,True
28396,62339311c991c97ec4facae1,run2,generalization,,38,,,,38,62338cbc1d10cf97e4bf7d32,6233913721a24a50e441bc00,$1.86,186.0,,,13.0,10.0,nu-to,nuto,True,,{},1647547048987.0,,,,4.381,,1647546732080.0,1647547153213.0,,,,,,add,,1,nan,,,,,,,,,True,True,False,False,False,False,False,False,False,False,True,,,,,,1,"{'ga': 1.0, 'ke': 2.0, 'to': 3.0, 'so': 4.0, 'di': 5.0, 'pi': 6.0, 'ja': 7.0, 'ze': 8.0, 'hu': 9.0, 'nu': 10.0}",10-3,10-3,2,0.0,add,0.0,0.0,False,inf,idk,add,add,True
28397,62339311c991c97ec4facae1,run2,generalization,,38,,,,38,62338cbc1d10cf97e4bf7d32,6233913721a24a50e441bc00,$1.86,186.0,,,14.0,10.0,nu-so,nuso,True,,{},1647547048987.0,,,,3.656,,1647546732080.0,1647547153213.0,,,,,,add,,1,nan,,,,,,,,,True,True,False,False,False,False,False,False,False,False,True,,,,,,1,"{'ga': 1.0, 'ke': 2.0, 'to': 3.0, 'so': 4.0, 'di': 5.0, 'pi': 6.0, 'ja': 7.0, 'ze': 8.0, 'hu': 9.0, 'nu': 10.0}",10-4,10-4,2,0.0,add,0.0,0.0,False,inf,idk,add,add,True
28398,62339311c991c97ec4facae1,run2,generalization,,38,,,,38,62338cbc1d10cf97e4bf7d32,6233913721a24a50e441bc00,$1.86,186.0,,,15.0,10.0,nu-di,nudi,True,,{},1647547048987.0,,,,3.774,,1647546732080.0,1647547153213.0,,,,,,add,,1,nan,,,,,,,,,True,True,False,False,False,False,False,False,False,False,True,,,,,,1,"{'ga': 1.0, 'ke': 2.0, 'to': 3.0, 'so': 4.0, 'di': 5.0, 'pi': 6.0, 'ja': 7.0, 'ze': 8.0, 'hu': 9.0, 'nu': 10.0}",10-5,10-5,2,0.0,add,0.0,0.0,False,inf,idk,add,add,True
28399,62339311c991c97ec4facae1,run2,generalization,,38,,,,38,62338cbc1d10cf97e4bf7d32,6233913721a24a50e441bc00,$1.86,186.0,,,16.0,10.0,nu-pi,nupi,True,,{},1647547048987.0,,,,2.691,,1647546732080.0,1647547153213.0,,,,,,add,,1,nan,,,,,,,,,True,True,False,False,False,False,False,False,False,False,True,,,,,,1,"{'ga': 1.0, 'ke': 2.0, 'to': 3.0, 'so': 4.0, 'di': 5.0, 'pi': 6.0, 'ja': 7.0, 'ze': 8.0, 'hu': 9.0, 'nu': 10.0}",10-6,10-6,2,0.0,add,0.0,0.0,False,inf,idk,add,add,True
28400,62339311c991c97ec4facae1,run2,generalization,,38,,,,38,62338cbc1d10cf97e4bf7d32,6233913721a24a50e441bc00,$1.86,186.0,,,17.0,10.0,nu-ja,nuja,True,,{},1647547048987.0,,,,2.87,,1647546732080.0,1647547153213.0,,,,,,add,,1,nan,,,,,,,,,True,True,False,False,False,False,False,False,False,False,True,,,,,,1,"{'ga': 1.0, 'ke': 2.0, 'to': 3.0, 'so': 4.0, 'di': 5.0, 'pi': 6.0, 'ja': 7.0, 'ze': 8.0, 'hu': 9.0, 'nu': 10.0}",10-7,10-7,2,0.0,add,0.0,0.0,False,inf,idk,add,add,True
28401,62339311c991c97ec4facae1,run2,generalization,,38,,,,38,62338cbc1d10cf97e4bf7d32,6233913721a24a50e441bc00,$1.86,186.0,,,18.0,10.0,nu-ze,nuze,True,,{},1647547048987.0,,,,3.363,,1647546732080.0,1647547153213.0,,,,,,add,,1,nan,,,,,,,,,True,True,False,False,False,False,False,False,False,False,True,,,,,,1,"{'ga': 1.0, 'ke': 2.0, 'to': 3.0, 'so': 4.0, 'di': 5.0, 'pi': 6.0, 'ja': 7.0, 'ze': 8.0, 'hu': 9.0, 'nu': 10.0}",10-8,10-8,2,0.0,add,0.0,0.0,False,inf,idk,add,add,True
28402,62339311c991c97ec4facae1,run2,generalization,,38,,,,38,62338cbc1d10cf97e4bf7d32,6233913721a24a50e441bc00,$1.86,186.0,,,19.0,10.0,nu-hu,nuhu,True,,{},1647547048987.0,,,,8.539,,1647546732080.0,1647547153213.0,,,,,,add,,1,nan,,,,,,,,,True,True,False,False,False,False,False,False,False,False,True,,,,,,1,"{'ga': 1.0, 'ke': 2.0, 'to': 3.0, 'so': 4.0, 'di': 5.0, 'pi': 6.0, 'ja': 7.0, 'ze': 8.0, 'hu': 9.0, 'nu': 10.0}",10-9,10-9,2,0.0,add,0.0,0.0,False,inf,idk,add,add,True
28403,62339311c991c97ec4facae1,run2,generalization,,38,,,,38,62338cbc1d10cf97e4bf7d32,6233913721a24a50e441bc00,$1.86,186.0,,,20.0,10.0,ke-nu,nunu,True,,{},1647547048987.0,,,,10.831,,1647546732080.0,1647547153213.0,,,,,,add,,1,nan,,,,,,,,,True,True,False,False,False,False,False,False,False,False,True,,,,,,1,"{'ga': 1.0, 'ke': 2.0, 'to': 3.0, 'so': 4.0, 'di': 5.0, 'pi': 6.0, 'ja': 7.0, 'ze': 8.0, 'hu': 9.0, 'nu': 10.0}",10-10,2-10,2,0.0,add,0.0,0.0,False,inf,idk,add,add,False
28414,62339311c991c97ec4facae3,run2,generalization,,47,,,,47,62338cbc1d10cf97e4bf7d32,62339143646d66b44909fd03,$1.93,193.0,,,11.0,10.0,do-go,gogo,False,,{},1647547086112.0,,,,11.006,,1647546817911.0,1647547153214.0,,,,,,add,,1,nan,,,,,,,,,True,True,False,False,False,False,False,False,False,False,True,,,,,,1,"{'go': 1.0, 'ke': 2.0, 'hi': 3.0, 'ti': 4.0, 'sa': 5.0, 'zu': 6.0, 'na': 7.0, 'pu': 8.0, 'je': 9.0, 'do': 10.0}",1-1,10-1,2,9.0,add,9.0,9.0,False,inf,idk,bad,bad,False
28415,62339311c991c97ec4facae3,run2,generalization,,47,,,,47,62338cbc1d10cf97e4bf7d32,62339143646d66b44909fd03,$1.93,193.0,,,12.0,10.0,do-ke,goke,True,,{},1647547086112.0,,,,4.984,,1647546817911.0,1647547153214.0,,,,,,add_sf,,1,nan,,,,,,,,,True,True,False,False,False,False,False,False,False,False,True,,,,,,1,"{'go': 1.0, 'ke': 2.0, 'hi': 3.0, 'ti': 4.0, 'sa': 5.0, 'zu': 6.0, 'na': 7.0, 'pu': 8.0, 'je': 9.0, 'do': 10.0}",1-2,10-2,2,0.0,add,9.0,10.0,True,0.0,add,add,add_sf,False
28416,62339311c991c97ec4facae3,run2,generalization,,47,,,,47,62338cbc1d10cf97e4bf7d32,62339143646d66b44909fd03,$1.93,193.0,,,13.0,10.0,do-hi,gohi,True,,{},1647547086112.0,,,,3.0,,1647546817911.0,1647547153214.0,,,,,,add_sf,,1,nan,,,,,,,,,True,True,False,False,False,False,False,False,False,False,True,,,,,,1,"{'go': 1.0, 'ke': 2.0, 'hi': 3.0, 'ti': 4.0, 'sa': 5.0, 'zu': 6.0, 'na': 7.0, 'pu': 8.0, 'je': 9.0, 'do': 10.0}",1-3,10-3,2,0.0,add,9.0,10.0,True,0.0,add,add,add_sf,False
28417,62339311c991c97ec4facae3,run2,generalization,,47,,,,47,62338cbc1d10cf97e4bf7d32,62339143646d66b44909fd03,$1.93,193.0,,,14.0,10.0,do-ti,goti,True,,{},1647547086112.0,,,,2.512,,1647546817911.0,1647547153214.0,,,,,,add_sf,,1,nan,,,,,,,,,True,True,False,False,False,False,False,False,False,False,True,,,,,,1,"{'go': 1.0, 'ke': 2.0, 'hi': 3.0, 'ti': 4.0, 'sa': 5.0, 'zu': 6.0, 'na': 7.0, 'pu': 8.0, 'je': 9.0, 'do': 10.0}",1-4,10-4,2,0.0,add,9.0,10.0,True,0.0,add,add,add_sf,False
28418,62339311c991c97ec4facae3,run2,generalization,,47,,,,47,62338cbc1d10cf97e4bf7d32,62339143646d66b44909fd03,$1.93,193.0,,,15.0,10.0,do-sa,gosa,True,,{},1647547086112.0,,,,3.48,,1647546817911.0,1647547153214.0,,,,,,add_sf,,1,nan,,,,,,,,,True,True,False,False,False,False,False,False,False,False,True,,,,,,1,"{'go': 1.0, 'ke': 2.0, 'hi': 3.0, 'ti': 4.0, 'sa': 5.0, 'zu': 6.0, 'na': 7.0, 'pu': 8.0, 'je': 9.0, 'do': 10.0}",1-5,10-5,2,0.0,add,9.0,10.0,True,0.0,add,add,add_sf,False
28419,62339311c991c97ec4facae3,run2,generalization,,47,,,,47,62338cbc1d10cf97e4bf7d32,62339143646d66b44909fd03,$1.93,193.0,,,16.0,10.0,do-zu,gozu,True,,{},1647547086112.0,,,,3.696,,1647546817911.0,1647547153214.0,,,,,,add_sf,,1,nan,,,,,,,,,True,True,False,False,False,False,False,False,False,False,True,,,,,,1,"{'go': 1.0, 'ke': 2.0, 'hi': 3.0, 'ti': 4.0, 'sa': 5.0, 'zu': 6.0, 'na': 7.0, 'pu': 8.0, 'je': 9.0, 'do': 10.0}",1-6,10-6,2,0.0,add,9.0,10.0,True,0.0,add,add,add_sf,False
28420,62339311c991c97ec4facae3,run2,generalization,,47,,,,47,62338cbc1d10cf97e4bf7d32,62339143646d66b44909fd03,$1.93,193.0,,,17.0,10.0,do-na,gona,True,,{},1647547086112.0,,,,2.848,,1647546817911.0,1647547153214.0,,,,,,add_sf,,1,nan,,,,,,,,,True,True,False,False,False,False,False,False,False,False,True,,,,,,1,"{'go': 1.0, 'ke': 2.0, 'hi': 3.0, 'ti': 4.0, 'sa': 5.0, 'zu': 6.0, 'na': 7.0, 'pu': 8.0, 'je': 9.0, 'do': 10.0}",1-7,10-7,2,0.0,add,9.0,10.0,True,0.0,add,add,add_sf,False
28421,62339311c991c97ec4facae3,run2,generalization,,47,,,,47,62338cbc1d10cf97e4bf7d32,62339143646d66b44909fd03,$1.93,193.0,,,18.0,10.0,do-pu,gopu,True,,{},1647547086112.0,,,,2.312,,1647546817911.0,1647547153214.0,,,,,,add_sf,,1,nan,,,,,,,,,True,True,False,False,False,False,False,False,False,False,True,,,,,,1,"{'go': 1.0, 'ke': 2.0, 'hi': 3.0, 'ti': 4.0, 'sa': 5.0, 'zu': 6.0, 'na': 7.0, 'pu': 8.0, 'je': 9.0, 'do': 10.0}",1-8,10-8,2,0.0,add,9.0,10.0,True,0.0,add,add,add_sf,False
