,_id,iterationName,phase,finalCount,GID,workerID,assignmentID,hitID,prolificID,studyID,sessionID,score,totalScore,trial,sectionTrial,num,base,targ,resp,correct,take,distractions,trialStartTime,takeStartTime,trialTime,takeTime,RT,WT,initTime,endTime,gender,age,comments,understood,totalLength,strategy,strategy_other,expt,cond,targetWord,targetNum,responseSide,responseNumber,responseWord,otherNumber,otherWord,missed,syntax,count,duplicate,failedGame,nonsenseGame,failedOutlier,distracted,distractedGame,manualExclude,incomplete,generalized,prim,add,mult,exp,feature_sum,maxrule,lexicon,gloss,targ_gloss,numSyls,err,strat,add_err,mul_err,sf,sf_acc,sf_strat,strat_acc,strategy_acc,exact_match
30859,63cd848e58c4334a66b04581,run1,generalization,,193,,,,193,63cc988c2a276a3b63c222e6,63cd82d586100bcee1422586,$2.02,2.02,,,11.0,5.0,na-hu-ko,nahuko,True,,{},1674413110119.0,,,,0.489,2.54,1674412829191.0,1674413199054.0,,,,,,mul,,2,control,,,,,,,,,True,True,False,False,False,False,False,False,False,False,True,,,,,,1,"{'ko': 1.0, 'na': 2.0, 'te': 3.0, 'si': 4.0, 'hu': 5.0}",2-5-1,2-5-1,3,0.0,mul,3.0,0.0,False,0.0,add,mul,mul,True
30860,63cd848e58c4334a66b04581,run1,generalization,,193,,,,193,63cc988c2a276a3b63c222e6,63cd82d586100bcee1422586,$2.02,2.02,,,12.0,5.0,na-hu-na,nahuna,True,,{},1674413110119.0,,,,0.755,3.823,1674412829191.0,1674413199054.0,,,,,,mul,,2,control,,,,,,,,,True,True,False,False,False,False,False,False,False,False,True,,,,,,1,"{'ko': 1.0, 'na': 2.0, 'te': 3.0, 'si': 4.0, 'hu': 5.0}",2-5-2,2-5-2,3,0.0,mul,3.0,0.0,False,0.0,add,mul,mul,True
30861,63cd848e58c4334a66b04581,run1,generalization,,193,,,,193,63cc988c2a276a3b63c222e6,63cd82d586100bcee1422586,$2.02,2.02,,,13.0,5.0,na-hu-te,nahute,True,,{},1674413110119.0,,,,0.531,2.583,1674412829191.0,1674413199054.0,,,,,,mul,,2,control,,,,,,,,,True,True,False,False,False,False,False,False,False,False,True,,,,,,1,"{'ko': 1.0, 'na': 2.0, 'te': 3.0, 'si': 4.0, 'hu': 5.0}",2-5-3,2-5-3,3,0.0,mul,3.0,0.0,False,0.0,add,mul,mul,True
30862,63cd848e58c4334a66b04581,run1,generalization,,193,,,,193,63cc988c2a276a3b63c222e6,63cd82d586100bcee1422586,$2.02,2.02,,,14.0,5.0,na-hu-si,nahusi,True,,{},1674413110119.0,,,,0.701,1.619,1674412829191.0,1674413199054.0,,,,,,mul,,2,control,,,,,,,,,True,True,False,False,False,False,False,False,False,False,True,,,,,,1,"{'ko': 1.0, 'na': 2.0, 'te': 3.0, 'si': 4.0, 'hu': 5.0}",2-5-4,2-5-4,3,0.0,mul,3.0,0.0,False,0.0,add,mul,mul,True
30863,63cd848e58c4334a66b04581,run1,generalization,,193,,,,193,63cc988c2a276a3b63c222e6,63cd82d586100bcee1422586,$2.02,2.02,,,15.0,5.0,te-hu,nahuhu,True,,{},1674413110119.0,,,,0.616,3.79,1674412829191.0,1674413199054.0,,,,,,mul,,2,control,,,,,,,,,True,True,False,False,False,False,False,False,False,False,True,,,,,,1,"{'ko': 1.0, 'na': 2.0, 'te': 3.0, 'si': 4.0, 'hu': 5.0}",2-5-5,3-5,2,0.0,mul,3.0,0.0,False,0.0,add,mul,mul,False
30864,63cd848e58c4334a66b04581,run1,generalization,,193,,,,193,63cc988c2a276a3b63c222e6,63cd82d586100bcee1422586,$2.02,2.02,,,16.0,5.0,te-hu-ko,nahuhuko,True,,{},1674413110119.0,,,,0.951,5.929,1674412829191.0,1674413199054.0,,,,,,mul,,2,control,,,,,,,,,True,True,False,False,False,False,False,False,False,False,True,,,,,,1,"{'ko': 1.0, 'na': 2.0, 'te': 3.0, 'si': 4.0, 'hu': 5.0}",2-5-5-1,3-5-1,3,0.0,mul,3.0,0.0,False,0.0,add,mul,mul,False
30865,63cd848e58c4334a66b04581,run1,generalization,,193,,,,193,63cc988c2a276a3b63c222e6,63cd82d586100bcee1422586,$2.02,2.02,,,17.0,5.0,te-hu-na,nahuhuna,True,,{},1674413110119.0,,,,0.624,7.479,1674412829191.0,1674413199054.0,,,,,,mul,,2,control,,,,,,,,,True,True,False,False,False,False,False,False,False,False,True,,,,,,1,"{'ko': 1.0, 'na': 2.0, 'te': 3.0, 'si': 4.0, 'hu': 5.0}",2-5-5-2,3-5-2,3,0.0,mul,3.0,0.0,False,0.0,add,mul,mul,False
30866,63cd848e58c4334a66b04581,run1,generalization,,193,,,,193,63cc988c2a276a3b63c222e6,63cd82d586100bcee1422586,$2.02,2.02,,,18.0,5.0,te-hu-te,nahuhute,True,,{},1674413110119.0,,,,0.487,4.306,1674412829191.0,1674413199054.0,,,,,,mul,,2,control,,,,,,,,,True,True,False,False,False,False,False,False,False,False,True,,,,,,1,"{'ko': 1.0, 'na': 2.0, 'te': 3.0, 'si': 4.0, 'hu': 5.0}",2-5-5-3,3-5-3,3,0.0,mul,3.0,0.0,False,0.0,add,mul,mul,False
30867,63cd848e58c4334a66b04581,run1,generalization,,193,,,,193,63cc988c2a276a3b63c222e6,63cd82d586100bcee1422586,$2.02,2.02,,,19.0,5.0,te-hu-si,nahuhusi,True,,{},1674413110119.0,,,,0.984,2.978,1674412829191.0,1674413199054.0,,,,,,mul,,2,control,,,,,,,,,True,True,False,False,False,False,False,False,False,False,True,,,,,,1,"{'ko': 1.0, 'na': 2.0, 'te': 3.0, 'si': 4.0, 'hu': 5.0}",2-5-5-4,3-5-4,3,0.0,mul,3.0,0.0,False,0.0,add,mul,mul,False
30868,63cd848e58c4334a66b04581,run1,generalization,,193,,,,193,63cc988c2a276a3b63c222e6,63cd82d586100bcee1422586,$2.02,2.02,,,20.0,5.0,si-hu,nahunahu,True,,{},1674413110119.0,,,,3.661,8.945,1674412829191.0,1674413199054.0,,,,,,mul,,2,control,,,,,,,,,True,True,False,False,False,False,False,False,False,False,True,,,,,,1,"{'ko': 1.0, 'na': 2.0, 'te': 3.0, 'si': 4.0, 'hu': 5.0}",2-5-2-5,4-5,2,0.0,mul,6.0,0.0,False,inf,idk,mul,mul,False
30879,63cd853e58c4334a66b045e7,run1,generalization,,195,,,,195,63cc988c2a276a3b63c222e6,63cd82d3d1db04dd3a8b1a7e,$1.98,1.98,,,11.0,5.0,na-hu-ki,nahuki,True,,{},1674413286563.0,,,,1.04,4.344,1674412935900.0,1674413374629.0,,,,,,mul,,2,no_count,,,,,,,,,True,False,False,False,False,False,False,False,False,False,True,,,,,,1,"{'se': 4.0, 'ki': 1.0, 'na': 2.0, 'to': 3.0, 'hu': 5.0}",2-5-1,2-5-1,3,0.0,mul,3.0,0.0,False,0.0,add,mul,mul,True
30880,63cd853e58c4334a66b045e7,run1,generalization,,195,,,,195,63cc988c2a276a3b63c222e6,63cd82d3d1db04dd3a8b1a7e,$1.98,1.98,,,12.0,5.0,na-hu-na,nahuna,True,,{},1674413286563.0,,,,1.536,2.192,1674412935900.0,1674413374629.0,,,,,,mul,,2,no_count,,,,,,,,,True,False,False,False,False,False,False,False,False,False,True,,,,,,1,"{'se': 4.0, 'ki': 1.0, 'na': 2.0, 'to': 3.0, 'hu': 5.0}",2-5-2,2-5-2,3,0.0,mul,3.0,0.0,False,0.0,add,mul,mul,True
30881,63cd853e58c4334a66b045e7,run1,generalization,,195,,,,195,63cc988c2a276a3b63c222e6,63cd82d3d1db04dd3a8b1a7e,$1.98,1.98,,,13.0,5.0,na-hu-to,nahuto,True,,{},1674413286563.0,,,,0.552,1.896,1674412935900.0,1674413374629.0,,,,,,mul,,2,no_count,,,,,,,,,True,False,False,False,False,False,False,False,False,False,True,,,,,,1,"{'se': 4.0, 'ki': 1.0, 'na': 2.0, 'to': 3.0, 'hu': 5.0}",2-5-3,2-5-3,3,0.0,mul,3.0,0.0,False,0.0,add,mul,mul,True
30882,63cd853e58c4334a66b045e7,run1,generalization,,195,,,,195,63cc988c2a276a3b63c222e6,63cd82d3d1db04dd3a8b1a7e,$1.98,1.98,,,14.0,5.0,na-hu-se,nahuse,True,,{},1674413286563.0,,,,1.184,1.976,1674412935900.0,1674413374629.0,,,,,,mul,,2,no_count,,,,,,,,,True,False,False,False,False,False,False,False,False,False,True,,,,,,1,"{'se': 4.0, 'ki': 1.0, 'na': 2.0, 'to': 3.0, 'hu': 5.0}",2-5-4,2-5-4,3,0.0,mul,3.0,0.0,False,0.0,add,mul,mul,True
30883,63cd853e58c4334a66b045e7,run1,generalization,,195,,,,195,63cc988c2a276a3b63c222e6,63cd82d3d1db04dd3a8b1a7e,$1.98,1.98,,,15.0,5.0,to-hu,tohu,True,,{},1674413286563.0,,,,2.449,1.903,1674412935900.0,1674413374629.0,,,,,,mul,,2,no_count,,,,,,,,,True,False,False,False,False,False,False,False,False,False,True,,,,,,1,"{'se': 4.0, 'ki': 1.0, 'na': 2.0, 'to': 3.0, 'hu': 5.0}",3-5,3-5,2,0.0,mul,7.0,0.0,False,inf,idk,mul,mul,True
30884,63cd853e58c4334a66b045e7,run1,generalization,,195,,,,195,63cc988c2a276a3b63c222e6,63cd82d3d1db04dd3a8b1a7e,$1.98,1.98,,,16.0,5.0,to-hu-ki,tohuki,True,,{},1674413286563.0,,,,0.896,3.945,1674412935900.0,1674413374629.0,,,,,,mul,,2,no_count,,,,,,,,,True,False,False,False,False,False,False,False,False,False,True,,,,,,1,"{'se': 4.0, 'ki': 1.0, 'na': 2.0, 'to': 3.0, 'hu': 5.0}",3-5-1,3-5-1,3,0.0,mul,7.0,0.0,False,0.0,add,mul,mul,True
30885,63cd853e58c4334a66b045e7,run1,generalization,,195,,,,195,63cc988c2a276a3b63c222e6,63cd82d3d1db04dd3a8b1a7e,$1.98,1.98,,,17.0,5.0,to-hu-na,tohuna,True,,{},1674413286563.0,,,,0.72,1.655,1674412935900.0,1674413374629.0,,,,,,mul,,2,no_count,,,,,,,,,True,False,False,False,False,False,False,False,False,False,True,,,,,,1,"{'se': 4.0, 'ki': 1.0, 'na': 2.0, 'to': 3.0, 'hu': 5.0}",3-5-2,3-5-2,3,0.0,mul,7.0,0.0,False,0.0,add,mul,mul,True
30886,63cd853e58c4334a66b045e7,run1,generalization,,195,,,,195,63cc988c2a276a3b63c222e6,63cd82d3d1db04dd3a8b1a7e,$1.98,1.98,,,18.0,5.0,to-hu-to,tohuse,False,,{},1674413286563.0,,,,2.969,2.911,1674412935900.0,1674413374629.0,,,,,,mul,,2,no_count,,,,,,,,,True,False,False,False,False,False,False,False,False,False,True,,,,,,1,"{'se': 4.0, 'ki': 1.0, 'na': 2.0, 'to': 3.0, 'hu': 5.0}",3-5-4,3-5-3,3,1.0,mul,6.0,1.0,False,inf,idk,bad,bad,False
30887,63cd853e58c4334a66b045e7,run1,generalization,,195,,,,195,63cc988c2a276a3b63c222e6,63cd82d3d1db04dd3a8b1a7e,$1.98,1.98,,,19.0,5.0,to-hu-se,tohuse,True,,{},1674413286563.0,,,,6.16,1.624,1674412935900.0,1674413374629.0,,,,,,mul,,2,no_count,,,,,,,,,True,False,False,False,False,False,False,False,False,False,True,,,,,,1,"{'se': 4.0, 'ki': 1.0, 'na': 2.0, 'to': 3.0, 'hu': 5.0}",3-5-4,3-5-4,3,0.0,mul,7.0,0.0,False,inf,idk,mul,mul,True
30888,63cd853e58c4334a66b045e7,run1,generalization,,195,,,,195,63cc988c2a276a3b63c222e6,63cd82d3d1db04dd3a8b1a7e,$1.98,1.98,,,20.0,5.0,se-hu,sehu,True,,{},1674413286563.0,,,,1.704,4.904,1674412935900.0,1674413374629.0,,,,,,mul,,2,no_count,,,,,,,,,True,False,False,False,False,False,False,False,False,False,True,,,,,,1,"{'se': 4.0, 'ki': 1.0, 'na': 2.0, 'to': 3.0, 'hu': 5.0}",4-5,4-5,2,0.0,mul,11.0,0.0,False,inf,idk,mul,mul,True
30899,63cd865658c4334a66b04639,run1,generalization,,194,,,,194,63cc988c2a276a3b63c222e6,63cd82c14591a1ba4aae1fd5,$1.27,1.27,,,11.0,5.0,hu-ki-na,nakie,False,,{},1674413462773.0,,,,6.939,7.837,1674412833937.0,1674413654820.0,,,,,,add,,2,no_count,,,,,,,,,True,False,False,False,False,False,False,False,False,False,True,,,,,,1,"{'te': 4.0, 'na': 1.0, 'ki': 5.0, 'hu': 2.0, 'so': 3.0}",1-5-e,2-5-1,3,5.0,add,5.0,6.0,False,inf,idk,bad,bad,False
30900,63cd865658c4334a66b04639,run1,generalization,,194,,,,194,63cc988c2a276a3b63c222e6,63cd82c14591a1ba4aae1fd5,$1.27,1.27,,,12.0,5.0,hu-ki-hu,kinahu,False,,{},1674413462773.0,,,,6.925,2.49,1674412833937.0,1674413654820.0,,,,,,add,,2,no_count,,,,,,,,,True,False,False,False,False,False,False,False,False,False,True,,,,,,1,"{'te': 4.0, 'na': 1.0, 'ki': 5.0, 'hu': 2.0, 'so': 3.0}",5-1-2,2-5-2,3,4.0,add,4.0,5.0,False,inf,idk,bad,bad,False
30901,63cd865658c4334a66b04639,run1,generalization,,194,,,,194,63cc988c2a276a3b63c222e6,63cd82c14591a1ba4aae1fd5,$1.27,1.27,,,13.0,5.0,hu-ki-so,huteso,True,,{},1674413462773.0,,,,7.712,2.969,1674412833937.0,1674413654820.0,,,,,,add_sf,,2,no_count,,,,,,,,,True,False,False,False,False,False,False,False,False,False,True,,,,,,1,"{'te': 4.0, 'na': 1.0, 'ki': 5.0, 'hu': 2.0, 'so': 3.0}",2-4-3,2-5-3,3,0.0,add,4.0,2.0,True,0.0,add,add,add_sf,False
30902,63cd865658c4334a66b04639,run1,generalization,,194,,,,194,63cc988c2a276a3b63c222e6,63cd82c14591a1ba4aae1fd5,$1.27,1.27,,,14.0,5.0,hu-ki-te,hutete,True,,{},1674413462773.0,,,,0.697,3.704,1674412833937.0,1674413654820.0,,,,,,add_sf,,2,no_count,,,,,,,,,True,False,False,False,False,False,False,False,False,False,True,,,,,,1,"{'te': 4.0, 'na': 1.0, 'ki': 5.0, 'hu': 2.0, 'so': 3.0}",2-4-4,2-5-4,3,0.0,add,4.0,2.0,True,0.0,add,add,add_sf,False
30903,63cd865658c4334a66b04639,run1,generalization,,194,,,,194,63cc988c2a276a3b63c222e6,63cd82c14591a1ba4aae1fd5,$1.27,1.27,,,15.0,5.0,so-ki,huteki,True,,{},1674413462773.0,,,,0.403,3.228,1674412833937.0,1674413654820.0,,,,,,add_sf,,2,no_count,,,,,,,,,True,False,False,False,False,False,False,False,False,False,True,,,,,,1,"{'te': 4.0, 'na': 1.0, 'ki': 5.0, 'hu': 2.0, 'so': 3.0}",2-4-5,3-5,2,0.0,add,4.0,7.0,True,0.0,add,add,add_sf,False
30904,63cd865658c4334a66b04639,run1,generalization,,194,,,,194,63cc988c2a276a3b63c222e6,63cd82c14591a1ba4aae1fd5,$1.27,1.27,,,16.0,5.0,so-ki-na,hutekina,True,,{},1674413462773.0,,,,1.282,6.218,1674412833937.0,1674413654820.0,,,,,,add_sf,,2,no_count,,,,,,,,,True,False,False,False,False,False,False,False,False,False,True,,,,,,1,"{'te': 4.0, 'na': 1.0, 'ki': 5.0, 'hu': 2.0, 'so': 3.0}",2-4-5-1,3-5-1,3,0.0,add,4.0,7.0,True,0.0,add,add,add_sf,False
30905,63cd865658c4334a66b04639,run1,generalization,,194,,,,194,63cc988c2a276a3b63c222e6,63cd82c14591a1ba4aae1fd5,$1.27,1.27,,,17.0,5.0,so-ki-hu,hutehihi,False,,{},1674413462773.0,,,,2.391,2.452,1674412833937.0,1674413654820.0,,,,,,mul,,2,no_count,,,,,,,,,True,False,False,False,False,False,False,False,False,False,True,,,,,,1,"{'te': 4.0, 'na': 1.0, 'ki': 5.0, 'hu': 2.0, 'so': 3.0}",2-4-hihi,3-5-2,3,9.0,mul,11.0,9.0,False,inf,idk,bad,bad,False
30906,63cd865658c4334a66b04639,run1,generalization,,194,,,,194,63cc988c2a276a3b63c222e6,63cd82c14591a1ba4aae1fd5,$1.27,1.27,,,18.0,5.0,so-ki-so,hutekiso,False,,{},1674413462773.0,,,,2.087,4.333,1674412833937.0,1674413654820.0,,,,,,add,,2,no_count,,,,,,,,,True,False,False,False,False,False,False,False,False,False,True,,,,,,1,"{'te': 4.0, 'na': 1.0, 'ki': 5.0, 'hu': 2.0, 'so': 3.0}",2-4-5-3,3-5-3,3,4.0,add,4.0,8.0,False,inf,idk,bad,bad,False
30907,63cd865658c4334a66b04639,run1,generalization,,194,,,,194,63cc988c2a276a3b63c222e6,63cd82c14591a1ba4aae1fd5,$1.27,1.27,,,19.0,5.0,so-ki-te,hutekite,True,,{},1674413462773.0,,,,0.664,6.7,1674412833937.0,1674413654820.0,,,,,,add_sf,,2,no_count,,,,,,,,,True,False,False,False,False,False,False,False,False,False,True,,,,,,1,"{'te': 4.0, 'na': 1.0, 'ki': 5.0, 'hu': 2.0, 'so': 3.0}",2-4-5-4,3-5-4,3,0.0,add,4.0,9.0,True,0.0,add,add,add_sf,False
30908,63cd865658c4334a66b04639,run1,generalization,,194,,,,194,63cc988c2a276a3b63c222e6,63cd82c14591a1ba4aae1fd5,$1.27,1.27,,,20.0,5.0,te-ki,hutehu,False,,{},1674413462773.0,,,,4.17,1.966,1674412833937.0,1674413654820.0,,,,,,mul,,2,no_count,,,,,,,,,True,False,False,False,False,False,False,False,False,False,True,,,,,,1,"{'te': 4.0, 'na': 1.0, 'ki': 5.0, 'hu': 2.0, 'so': 3.0}",2-4-2,4-5,2,10.0,mul,12.0,10.0,False,inf,idk,bad,bad,False
30919,63cd8d8d58c4334a66b047f4,run1,generalization,,196,,,,196,63cc988c2a276a3b63c222e6,63cd8a33aec0ccabcf0f9ba9,$2.01,2.01,,,11.0,5.0,na-to-ke,natoke,True,,{},1674415332797.0,,,,5.782,4.707,1674414847191.0,1674415503478.0,,,,,,mul,,2,no_count,,,,,,,,,True,False,False,False,False,False,False,False,False,False,True,,,,,,1,"{'si': 4.0, 'ke': 1.0, 'to': 5.0, 'hu': 3.0, 'na': 2.0}",2-5-1,2-5-1,3,0.0,mul,3.0,0.0,False,0.0,add,mul,mul,True
30920,63cd8d8d58c4334a66b047f4,run1,generalization,,196,,,,196,63cc988c2a276a3b63c222e6,63cd8a33aec0ccabcf0f9ba9,$2.01,2.01,,,12.0,5.0,na-to-na,natona,True,,{},1674415332797.0,,,,1.343,5.519,1674414847191.0,1674415503478.0,,,,,,mul,,2,no_count,,,,,,,,,True,False,False,False,False,False,False,False,False,False,True,,,,,,1,"{'si': 4.0, 'ke': 1.0, 'to': 5.0, 'hu': 3.0, 'na': 2.0}",2-5-2,2-5-2,3,0.0,mul,3.0,0.0,False,0.0,add,mul,mul,True
30921,63cd8d8d58c4334a66b047f4,run1,generalization,,196,,,,196,63cc988c2a276a3b63c222e6,63cd8a33aec0ccabcf0f9ba9,$2.01,2.01,,,13.0,5.0,na-to-hu,natohu,True,,{},1674415332797.0,,,,1.243,5.569,1674414847191.0,1674415503478.0,,,,,,mul,,2,no_count,,,,,,,,,True,False,False,False,False,False,False,False,False,False,True,,,,,,1,"{'si': 4.0, 'ke': 1.0, 'to': 5.0, 'hu': 3.0, 'na': 2.0}",2-5-3,2-5-3,3,0.0,mul,3.0,0.0,False,0.0,add,mul,mul,True
30922,63cd8d8d58c4334a66b047f4,run1,generalization,,196,,,,196,63cc988c2a276a3b63c222e6,63cd8a33aec0ccabcf0f9ba9,$2.01,2.01,,,14.0,5.0,na-to-si,natosi,True,,{},1674415332797.0,,,,0.993,,1674414847191.0,1674415503478.0,,,,,,mul,,2,no_count,,,,,,,,,True,False,False,False,False,False,False,False,False,False,True,,,,,,1,"{'si': 4.0, 'ke': 1.0, 'to': 5.0, 'hu': 3.0, 'na': 2.0}",2-5-4,2-5-4,3,0.0,mul,3.0,0.0,False,0.0,add,mul,mul,True
30923,63cd8d8d58c4334a66b047f4,run1,generalization,,196,,,,196,63cc988c2a276a3b63c222e6,63cd8a33aec0ccabcf0f9ba9,$2.01,2.01,,,15.0,5.0,hu-to,natoto,True,,{},1674415332797.0,,,,2.359,3.148,1674414847191.0,1674415503478.0,,,,,,mul,,2,no_count,,,,,,,,,True,False,False,False,False,False,False,False,False,False,True,,,,,,1,"{'si': 4.0, 'ke': 1.0, 'to': 5.0, 'hu': 3.0, 'na': 2.0}",2-5-5,3-5,2,0.0,mul,3.0,0.0,False,0.0,add,mul,mul,False
30924,63cd8d8d58c4334a66b047f4,run1,generalization,,196,,,,196,63cc988c2a276a3b63c222e6,63cd8a33aec0ccabcf0f9ba9,$2.01,2.01,,,16.0,5.0,hu-to-ke,natotoke,True,,{},1674415332797.0,,,,3.764,,1674414847191.0,1674415503478.0,,,,,,mul,,2,no_count,,,,,,,,,True,False,False,False,False,False,False,False,False,False,True,,,,,,1,"{'si': 4.0, 'ke': 1.0, 'to': 5.0, 'hu': 3.0, 'na': 2.0}",2-5-5-1,3-5-1,3,0.0,mul,3.0,0.0,False,0.0,add,mul,mul,False
30925,63cd8d8d58c4334a66b047f4,run1,generalization,,196,,,,196,63cc988c2a276a3b63c222e6,63cd8a33aec0ccabcf0f9ba9,$2.01,2.01,,,17.0,5.0,hu-to-na,natotona,True,,{},1674415332797.0,,,,1.5,5.333,1674414847191.0,1674415503478.0,,,,,,mul,,2,no_count,,,,,,,,,True,False,False,False,False,False,False,False,False,False,True,,,,,,1,"{'si': 4.0, 'ke': 1.0, 'to': 5.0, 'hu': 3.0, 'na': 2.0}",2-5-5-2,3-5-2,3,0.0,mul,3.0,0.0,False,0.0,add,mul,mul,False
30926,63cd8d8d58c4334a66b047f4,run1,generalization,,196,,,,196,63cc988c2a276a3b63c222e6,63cd8a33aec0ccabcf0f9ba9,$2.01,2.01,,,18.0,5.0,hu-to-hu,natotohu,True,,{},1674415332797.0,,,,0.805,6.213,1674414847191.0,1674415503478.0,,,,,,mul,,2,no_count,,,,,,,,,True,False,False,False,False,False,False,False,False,False,True,,,,,,1,"{'si': 4.0, 'ke': 1.0, 'to': 5.0, 'hu': 3.0, 'na': 2.0}",2-5-5-3,3-5-3,3,0.0,mul,3.0,0.0,False,0.0,add,mul,mul,False
30927,63cd8d8d58c4334a66b047f4,run1,generalization,,196,,,,196,63cc988c2a276a3b63c222e6,63cd8a33aec0ccabcf0f9ba9,$2.01,2.01,,,19.0,5.0,hu-to-si,natotosi,True,,{},1674415332797.0,,,,0.751,5.199,1674414847191.0,1674415503478.0,,,,,,mul,,2,no_count,,,,,,,,,True,False,False,False,False,False,False,False,False,False,True,,,,,,1,"{'si': 4.0, 'ke': 1.0, 'to': 5.0, 'hu': 3.0, 'na': 2.0}",2-5-5-4,3-5-4,3,0.0,mul,3.0,0.0,False,0.0,add,mul,mul,False
30928,63cd8d8d58c4334a66b047f4,run1,generalization,,196,,,,196,63cc988c2a276a3b63c222e6,63cd8a33aec0ccabcf0f9ba9,$2.01,2.01,,,20.0,5.0,si-to,sito,True,,{},1674415332797.0,,,,20.917,7.107,1674414847191.0,1674415503478.0,,,,,,mul,,2,no_count,,,,,,,,,True,False,False,False,False,False,False,False,False,False,True,,,,,,1,"{'si': 4.0, 'ke': 1.0, 'to': 5.0, 'hu': 3.0, 'na': 2.0}",4-5,4-5,2,0.0,mul,11.0,0.0,False,inf,idk,mul,mul,True
30939,63cd926f58c4334a66b04e4d,run1,generalization,,197,,,,197,63cc988c2a276a3b63c222e6,63cd90bf29f960a6dfa33969,$1.88,1.88,,,11.0,5.0,no-hi-te,hitesu,True,,{},1674416651871.0,,,,15.137,2.356,1674416405952.0,1674416751718.0,,,,,,mul,,2,no_syntax,,,,,,,,,False,True,False,False,False,False,False,False,False,False,True,,,,,,1,"{'su': 1.0, 'ka': 2.0, 'hi-no': 3.0, 'hi-ka': 4.0, 'hi': 5.0, 'no': 6.0, 'hi-su': 7.0, 'te': 8.0, 'no-hi': 9.0, 'hi-te': 10.0}",10-1,6-5-8,3,0.0,mul,0.0,0.0,False,inf,idk,mul,mul,False
30940,63cd926f58c4334a66b04e4d,run1,generalization,,197,,,,197,63cc988c2a276a3b63c222e6,63cd90bf29f960a6dfa33969,$1.88,1.88,,,12.0,5.0,no-hi-no,hiteka,True,,{},1674416651871.0,,,,0.57,3.069,1674416405952.0,1674416751718.0,,,,,,mul,,2,no_syntax,,,,,,,,,False,True,False,False,False,False,False,False,False,False,True,,,,,,1,"{'su': 1.0, 'ka': 2.0, 'hi-no': 3.0, 'hi-ka': 4.0, 'hi': 5.0, 'no': 6.0, 'hi-su': 7.0, 'te': 8.0, 'no-hi': 9.0, 'hi-te': 10.0}",10-2,6-5-6,3,0.0,mul,0.0,0.0,False,inf,idk,mul,mul,False
30941,63cd926f58c4334a66b04e4d,run1,generalization,,197,,,,197,63cc988c2a276a3b63c222e6,63cd90bf29f960a6dfa33969,$1.88,1.88,,,13.0,5.0,no-hi-su,hitehino,True,,{},1674416651871.0,,,,0.576,2.15,1674416405952.0,1674416751718.0,,,,,,mul,,2,no_syntax,,,,,,,,,False,True,False,False,False,False,False,False,False,False,True,,,,,,1,"{'su': 1.0, 'ka': 2.0, 'hi-no': 3.0, 'hi-ka': 4.0, 'hi': 5.0, 'no': 6.0, 'hi-su': 7.0, 'te': 8.0, 'no-hi': 9.0, 'hi-te': 10.0}",10-3,6-5-1,3,0.0,mul,0.0,0.0,False,inf,idk,mul,mul,False
30942,63cd926f58c4334a66b04e4d,run1,generalization,,197,,,,197,63cc988c2a276a3b63c222e6,63cd90bf29f960a6dfa33969,$1.88,1.88,,,14.0,5.0,no-hi-ka,hitehika,True,,{},1674416651871.0,,,,0.462,1.831,1674416405952.0,1674416751718.0,,,,,,mul,,2,no_syntax,,,,,,,,,False,True,False,False,False,False,False,False,False,False,True,,,,,,1,"{'su': 1.0, 'ka': 2.0, 'hi-no': 3.0, 'hi-ka': 4.0, 'hi': 5.0, 'no': 6.0, 'hi-su': 7.0, 'te': 8.0, 'no-hi': 9.0, 'hi-te': 10.0}",10-4,6-5-2,3,0.0,mul,0.0,0.0,False,inf,idk,mul,mul,False
30943,63cd926f58c4334a66b04e4d,run1,generalization,,197,,,,197,63cc988c2a276a3b63c222e6,63cd90bf29f960a6dfa33969,$1.88,1.88,,,15.0,5.0,su-hi,hitehi,True,,{},1674416651871.0,,,,0.439,1.106,1674416405952.0,1674416751718.0,,,,,,mul,,2,no_syntax,,,,,,,,,False,True,False,False,False,False,False,False,False,False,True,,,,,,1,"{'su': 1.0, 'ka': 2.0, 'hi-no': 3.0, 'hi-ka': 4.0, 'hi': 5.0, 'no': 6.0, 'hi-su': 7.0, 'te': 8.0, 'no-hi': 9.0, 'hi-te': 10.0}",10-5,1-5,2,0.0,mul,0.0,0.0,False,inf,idk,mul,mul,False
30944,63cd926f58c4334a66b04e4d,run1,generalization,,197,,,,197,63cc988c2a276a3b63c222e6,63cd90bf29f960a6dfa33969,$1.88,1.88,,,16.0,5.0,su-hi-te,hitehisu,True,,{},1674416651871.0,,,,0.417,1.933,1674416405952.0,1674416751718.0,,,,,,mul,,2,no_syntax,,,,,,,,,False,True,False,False,False,False,False,False,False,False,True,,,,,,1,"{'su': 1.0, 'ka': 2.0, 'hi-no': 3.0, 'hi-ka': 4.0, 'hi': 5.0, 'no': 6.0, 'hi-su': 7.0, 'te': 8.0, 'no-hi': 9.0, 'hi-te': 10.0}",10-5-1,1-5-8,3,0.0,mul,0.0,0.0,False,inf,idk,mul,mul,False
30945,63cd926f58c4334a66b04e4d,run1,generalization,,197,,,,197,63cc988c2a276a3b63c222e6,63cd90bf29f960a6dfa33969,$1.88,1.88,,,17.0,5.0,su-hi-no,hitehisu,True,,{},1674416651871.0,,,,7.438,2.207,1674416405952.0,1674416751718.0,,,,,,mul,,2,no_syntax,,,,,,,,,False,True,False,False,False,False,False,False,False,False,True,,,,,,1,"{'su': 1.0, 'ka': 2.0, 'hi-no': 3.0, 'hi-ka': 4.0, 'hi': 5.0, 'no': 6.0, 'hi-su': 7.0, 'te': 8.0, 'no-hi': 9.0, 'hi-te': 10.0}",10-7,1-5-6,3,0.0,mul,0.0,0.0,False,inf,idk,mul,mul,False
30946,63cd926f58c4334a66b04e4d,run1,generalization,,197,,,,197,63cc988c2a276a3b63c222e6,63cd90bf29f960a6dfa33969,$1.88,1.88,,,18.0,5.0,su-hi-su,hitete,True,,{},1674416651871.0,,,,0.639,1.665,1674416405952.0,1674416751718.0,,,,,,mul,,2,no_syntax,,,,,,,,,False,True,False,False,False,False,False,False,False,False,True,,,,,,1,"{'su': 1.0, 'ka': 2.0, 'hi-no': 3.0, 'hi-ka': 4.0, 'hi': 5.0, 'no': 6.0, 'hi-su': 7.0, 'te': 8.0, 'no-hi': 9.0, 'hi-te': 10.0}",10-8,1-5-1,3,0.0,mul,0.0,0.0,False,inf,idk,mul,mul,False
30947,63cd926f58c4334a66b04e4d,run1,generalization,,197,,,,197,63cc988c2a276a3b63c222e6,63cd90bf29f960a6dfa33969,$1.88,1.88,,,19.0,5.0,su-hi-ka,hitenohi,True,,{},1674416651871.0,,,,0.354,3.428,1674416405952.0,1674416751718.0,,,,,,mul,,2,no_syntax,,,,,,,,,False,True,False,False,False,False,False,False,False,False,True,,,,,,1,"{'su': 1.0, 'ka': 2.0, 'hi-no': 3.0, 'hi-ka': 4.0, 'hi': 5.0, 'no': 6.0, 'hi-su': 7.0, 'te': 8.0, 'no-hi': 9.0, 'hi-te': 10.0}",10-9,1-5-2,3,0.0,mul,0.0,0.0,False,inf,idk,mul,mul,False
30948,63cd926f58c4334a66b04e4d,run1,generalization,,197,,,,197,63cc988c2a276a3b63c222e6,63cd90bf29f960a6dfa33969,$1.88,1.88,,,20.0,5.0,ka-hi,kahite,True,,{},1674416651871.0,,,,5.813,,1674416405952.0,1674416751718.0,,,,,,mul,,2,no_syntax,,,,,,,,,False,True,False,False,False,False,False,False,False,False,True,,,,,,1,"{'su': 1.0, 'ka': 2.0, 'hi-no': 3.0, 'hi-ka': 4.0, 'hi': 5.0, 'no': 6.0, 'hi-su': 7.0, 'te': 8.0, 'no-hi': 9.0, 'hi-te': 10.0}",2-10,2-5,2,0.0,mul,8.0,0.0,False,inf,idk,mul,mul,False
30959,63cd927858c4334a66b04e78,run1,generalization,,198,,,,198,63cc988c2a276a3b63c222e6,63cd90c30e1b3e2d0512253c,$1.83,1.83,,,11.0,5.0,ta-se-hi,sese,False,,"{'1674416644841': 'blurred', '1674416646635': 'focused', '1674416684919': 'blurred', '1674416687501': 'focused'}",1674416641096.0,,,,9.929,0.953,1674416412601.0,1674416760828.0,,,,,,add,,2,no_syntax,,,,,,,,,False,True,False,False,False,False,True,False,False,False,True,,,,,,1,"{'se': 1.0, 'se-ko': 2.0, 'se-hi': 3.0, 'ta-se': 4.0, 'se-nu': 5.0, 'ta': 6.0, 'nu': 7.0, 'se-ta': 8.0, 'ko': 9.0, 'hi': 10.0}",1,6-1-10,3,10.0,add,10.0,10.0,False,inf,idk,bad,bad,False
30960,63cd927858c4334a66b04e78,run1,generalization,,198,,,,198,63cc988c2a276a3b63c222e6,63cd90c30e1b3e2d0512253c,$1.83,1.83,,,12.0,5.0,ta-se-ta,seseko,False,,"{'1674416644841': 'blurred', '1674416646635': 'focused', '1674416684919': 'blurred', '1674416687501': 'focused'}",1674416641096.0,,,,5.79,9.868,1674416412601.0,1674416760828.0,,,,,,add,,2,no_syntax,,,,,,,,,False,True,False,False,False,False,True,False,False,False,True,,,,,,1,"{'se': 1.0, 'se-ko': 2.0, 'se-hi': 3.0, 'ta-se': 4.0, 'se-nu': 5.0, 'ta': 6.0, 'nu': 7.0, 'se-ta': 8.0, 'ko': 9.0, 'hi': 10.0}",1-1-9,6-1-6,3,1.0,add,1.0,2.0,False,inf,idk,bad,bad,False
30961,63cd927858c4334a66b04e78,run1,generalization,,198,,,,198,63cc988c2a276a3b63c222e6,63cd90c30e1b3e2d0512253c,$1.83,1.83,,,13.0,5.0,ta-se-ko,sesehi,True,,"{'1674416644841': 'blurred', '1674416646635': 'focused', '1674416684919': 'blurred', '1674416687501': 'focused'}",1674416641096.0,,,,1.323,3.906,1674416412601.0,1674416760828.0,,,,,,add_sf,,2,no_syntax,,,,,,,,,False,True,False,False,False,False,True,False,False,False,True,,,,,,1,"{'se': 1.0, 'se-ko': 2.0, 'se-hi': 3.0, 'ta-se': 4.0, 'se-nu': 5.0, 'ta': 6.0, 'nu': 7.0, 'se-ta': 8.0, 'ko': 9.0, 'hi': 10.0}",1-1-10,6-1-9,3,0.0,add,1.0,2.0,True,0.0,add,add,add_sf,False
30962,63cd927858c4334a66b04e78,run1,generalization,,198,,,,198,63cc988c2a276a3b63c222e6,63cd90c30e1b3e2d0512253c,$1.83,1.83,,,14.0,5.0,ta-se-nu,sesetase,False,,"{'1674416644841': 'blurred', '1674416646635': 'focused', '1674416684919': 'blurred', '1674416687501': 'focused'}",1674416641096.0,,,,0.858,3.684,1674416412601.0,1674416760828.0,,,,,,add,,2,no_syntax,,,,,,,,,False,True,False,False,False,False,True,False,False,False,True,,,,,,1,"{'se': 1.0, 'se-ko': 2.0, 'se-hi': 3.0, 'ta-se': 4.0, 'se-nu': 5.0, 'ta': 6.0, 'nu': 7.0, 'se-ta': 8.0, 'ko': 9.0, 'hi': 10.0}",1-8-1,6-1-7,3,4.0,add,4.0,5.0,False,inf,idk,bad,bad,False
30963,63cd927858c4334a66b04e78,run1,generalization,,198,,,,198,63cc988c2a276a3b63c222e6,63cd90c30e1b3e2d0512253c,$1.83,1.83,,,15.0,5.0,ko-se,sesesinu,False,,"{'1674416644841': 'blurred', '1674416646635': 'focused', '1674416684919': 'blurred', '1674416687501': 'focused'}",1674416641096.0,,,,0.768,4.006,1674416412601.0,1674416760828.0,,,,,,add,,2,no_syntax,,,,,,,,,False,True,False,False,False,False,True,False,False,False,True,,,,,,1,"{'se': 1.0, 'se-ko': 2.0, 'se-hi': 3.0, 'ta-se': 4.0, 'se-nu': 5.0, 'ta': 6.0, 'nu': 7.0, 'se-ta': 8.0, 'ko': 9.0, 'hi': 10.0}",1-1-7,9-1,2,6.0,add,6.0,7.0,False,inf,idk,bad,bad,False
30964,63cd927858c4334a66b04e78,run1,generalization,,198,,,,198,63cc988c2a276a3b63c222e6,63cd90c30e1b3e2d0512253c,$1.83,1.83,,,16.0,5.0,ko-se-hi,seseta,False,,"{'1674416644841': 'blurred', '1674416646635': 'focused', '1674416684919': 'blurred', '1674416687501': 'focused'}",1674416641096.0,,,,2.937,4.963,1674416412601.0,1674416760828.0,,,,,,add,,2,no_syntax,,,,,,,,,False,True,False,False,False,False,True,False,False,False,True,,,,,,1,"{'se': 1.0, 'se-ko': 2.0, 'se-hi': 3.0, 'ta-se': 4.0, 'se-nu': 5.0, 'ta': 6.0, 'nu': 7.0, 'se-ta': 8.0, 'ko': 9.0, 'hi': 10.0}",1-8,9-1-10,3,7.0,add,7.0,8.0,False,inf,idk,bad,bad,False
30965,63cd927858c4334a66b04e78,run1,generalization,,198,,,,198,63cc988c2a276a3b63c222e6,63cd90c30e1b3e2d0512253c,$1.83,1.83,,,17.0,5.0,ko-se-ta,sesenu,False,,"{'1674416644841': 'blurred', '1674416646635': 'focused', '1674416684919': 'blurred', '1674416687501': 'focused'}",1674416641096.0,,,,0.611,,1674416412601.0,1674416760828.0,,,,,,add,,2,no_syntax,,,,,,,,,False,True,False,False,False,False,True,False,False,False,True,,,,,,1,"{'se': 1.0, 'se-ko': 2.0, 'se-hi': 3.0, 'ta-se': 4.0, 'se-nu': 5.0, 'ta': 6.0, 'nu': 7.0, 'se-ta': 8.0, 'ko': 9.0, 'hi': 10.0}",1-1-7,9-1-6,3,8.0,add,8.0,9.0,False,inf,idk,bad,bad,False
30966,63cd927858c4334a66b04e78,run1,generalization,,198,,,,198,63cc988c2a276a3b63c222e6,63cd90c30e1b3e2d0512253c,$1.83,1.83,,,18.0,5.0,ko-se-ko,seseseta,True,,"{'1674416644841': 'blurred', '1674416646635': 'focused', '1674416684919': 'blurred', '1674416687501': 'focused'}",1674416641096.0,,,,0.853,2.613,1674416412601.0,1674416760828.0,,,,,,add_sf,,2,no_syntax,,,,,,,,,False,True,False,False,False,False,True,False,False,False,True,,,,,,1,"{'se': 1.0, 'se-ko': 2.0, 'se-hi': 3.0, 'ta-se': 4.0, 'se-nu': 5.0, 'ta': 6.0, 'nu': 7.0, 'se-ta': 8.0, 'ko': 9.0, 'hi': 10.0}",1-1-8,9-1-9,3,0.0,add,8.0,9.0,True,0.0,add,add,add_sf,False
30967,63cd927858c4334a66b04e78,run1,generalization,,198,,,,198,63cc988c2a276a3b63c222e6,63cd90c30e1b3e2d0512253c,$1.83,1.83,,,19.0,5.0,ko-se-nu,seseko,True,,"{'1674416644841': 'blurred', '1674416646635': 'focused', '1674416684919': 'blurred', '1674416687501': 'focused'}",1674416641096.0,,,,0.832,,1674416412601.0,1674416760828.0,,,,,,add_sf,,2,no_syntax,,,,,,,,,False,True,False,False,False,False,True,False,False,False,True,,,,,,1,"{'se': 1.0, 'se-ko': 2.0, 'se-hi': 3.0, 'ta-se': 4.0, 'se-nu': 5.0, 'ta': 6.0, 'nu': 7.0, 'se-ta': 8.0, 'ko': 9.0, 'hi': 10.0}",1-1-9,9-1-7,3,0.0,add,8.0,9.0,True,0.0,add,add,add_sf,False
30968,63cd927858c4334a66b04e78,run1,generalization,,198,,,,198,63cc988c2a276a3b63c222e6,63cd90c30e1b3e2d0512253c,$1.83,1.83,,,20.0,5.0,nu-se,sekoko,False,,"{'1674416644841': 'blurred', '1674416646635': 'focused', '1674416684919': 'blurred', '1674416687501': 'focused'}",1674416641096.0,,,,7.565,1.499,1674416412601.0,1674416760828.0,,,,,,add,,2,no_syntax,,,,,,,,,False,True,False,False,False,False,True,False,False,False,True,,,,,,1,"{'se': 1.0, 'se-ko': 2.0, 'se-hi': 3.0, 'ta-se': 4.0, 'se-nu': 5.0, 'ta': 6.0, 'nu': 7.0, 'se-ta': 8.0, 'ko': 9.0, 'hi': 10.0}",1-9-9,7-1,2,1.0,add,1.0,2.0,False,inf,idk,bad,bad,False
30979,63cd928858c4334a66b04ec9,run1,generalization,,199,,,,199,63cc988c2a276a3b63c222e6,63cd90befec356cac6a7ae7b,$1.98,1.98,,,11.0,5.0,su-na-ko,sunako,True,,"{'1674416660186': 'blurred', '1674416661576': 'focused'}",1674416654277.0,,,,6.649,3.825,1674416413741.0,1674416775483.0,,,,,,mul,,2,no_count,,,,,,,,,True,False,False,False,False,False,True,False,False,False,True,,,,,,1,"{'su': 2.0, 'ko': 1.0, 'he': 4.0, 'na': 5.0, 'ti': 3.0}",2-5-1,2-5-1,3,0.0,mul,3.0,0.0,False,0.0,add,mul,mul,True
30980,63cd928858c4334a66b04ec9,run1,generalization,,199,,,,199,63cc988c2a276a3b63c222e6,63cd90befec356cac6a7ae7b,$1.98,1.98,,,12.0,5.0,su-na-su,sunasu,True,,"{'1674416660186': 'blurred', '1674416661576': 'focused'}",1674416654277.0,,,,1.037,4.787,1674416413741.0,1674416775483.0,,,,,,mul,,2,no_count,,,,,,,,,True,False,False,False,False,False,True,False,False,False,True,,,,,,1,"{'su': 2.0, 'ko': 1.0, 'he': 4.0, 'na': 5.0, 'ti': 3.0}",2-5-2,2-5-2,3,0.0,mul,3.0,0.0,False,0.0,add,mul,mul,True
30981,63cd928858c4334a66b04ec9,run1,generalization,,199,,,,199,63cc988c2a276a3b63c222e6,63cd90befec356cac6a7ae7b,$1.98,1.98,,,13.0,5.0,su-na-ti,sunati,True,,"{'1674416660186': 'blurred', '1674416661576': 'focused'}",1674416654277.0,,,,0.35,4.412,1674416413741.0,1674416775483.0,,,,,,mul,,2,no_count,,,,,,,,,True,False,False,False,False,False,True,False,False,False,True,,,,,,1,"{'su': 2.0, 'ko': 1.0, 'he': 4.0, 'na': 5.0, 'ti': 3.0}",2-5-3,2-5-3,3,0.0,mul,3.0,0.0,False,0.0,add,mul,mul,True
30982,63cd928858c4334a66b04ec9,run1,generalization,,199,,,,199,63cc988c2a276a3b63c222e6,63cd90befec356cac6a7ae7b,$1.98,1.98,,,14.0,5.0,su-na-he,sunahe,True,,"{'1674416660186': 'blurred', '1674416661576': 'focused'}",1674416654277.0,,,,0.363,0.862,1674416413741.0,1674416775483.0,,,,,,mul,,2,no_count,,,,,,,,,True,False,False,False,False,False,True,False,False,False,True,,,,,,1,"{'su': 2.0, 'ko': 1.0, 'he': 4.0, 'na': 5.0, 'ti': 3.0}",2-5-4,2-5-4,3,0.0,mul,3.0,0.0,False,0.0,add,mul,mul,True
30983,63cd928858c4334a66b04ec9,run1,generalization,,199,,,,199,63cc988c2a276a3b63c222e6,63cd90befec356cac6a7ae7b,$1.98,1.98,,,15.0,5.0,ti-na,sunana,True,,"{'1674416660186': 'blurred', '1674416661576': 'focused'}",1674416654277.0,,,,0.213,3.313,1674416413741.0,1674416775483.0,,,,,,mul,,2,no_count,,,,,,,,,True,False,False,False,False,False,True,False,False,False,True,,,,,,1,"{'su': 2.0, 'ko': 1.0, 'he': 4.0, 'na': 5.0, 'ti': 3.0}",2-5-5,3-5,2,0.0,mul,3.0,0.0,False,0.0,add,mul,mul,False
30984,63cd928858c4334a66b04ec9,run1,generalization,,199,,,,199,63cc988c2a276a3b63c222e6,63cd90befec356cac6a7ae7b,$1.98,1.98,,,16.0,5.0,ti-na-ko,sunanako,True,,"{'1674416660186': 'blurred', '1674416661576': 'focused'}",1674416654277.0,,,,0.363,,1674416413741.0,1674416775483.0,,,,,,mul,,2,no_count,,,,,,,,,True,False,False,False,False,False,True,False,False,False,True,,,,,,1,"{'su': 2.0, 'ko': 1.0, 'he': 4.0, 'na': 5.0, 'ti': 3.0}",2-5-5-1,3-5-1,3,0.0,mul,3.0,0.0,False,0.0,add,mul,mul,False
30985,63cd928858c4334a66b04ec9,run1,generalization,,199,,,,199,63cc988c2a276a3b63c222e6,63cd90befec356cac6a7ae7b,$1.98,1.98,,,17.0,5.0,ti-na-su,sunanati,False,,"{'1674416660186': 'blurred', '1674416661576': 'focused'}",1674416654277.0,,,,0.363,10.061,1674416413741.0,1674416775483.0,,,,,,mul,,2,no_count,,,,,,,,,True,False,False,False,False,False,True,False,False,False,True,,,,,,1,"{'su': 2.0, 'ko': 1.0, 'he': 4.0, 'na': 5.0, 'ti': 3.0}",2-5-5-3,3-5-2,3,1.0,mul,2.0,1.0,False,inf,idk,bad,bad,False
30986,63cd928858c4334a66b04ec9,run1,generalization,,199,,,,199,63cc988c2a276a3b63c222e6,63cd90befec356cac6a7ae7b,$1.98,1.98,,,18.0,5.0,ti-na-ti,sunanati,True,,"{'1674416660186': 'blurred', '1674416661576': 'focused'}",1674416654277.0,,,,0.576,2.528,1674416413741.0,1674416775483.0,,,,,,mul,,2,no_count,,,,,,,,,True,False,False,False,False,False,True,False,False,False,True,,,,,,1,"{'su': 2.0, 'ko': 1.0, 'he': 4.0, 'na': 5.0, 'ti': 3.0}",2-5-5-3,3-5-3,3,0.0,mul,3.0,0.0,False,inf,idk,mul,mul,False
30987,63cd928858c4334a66b04ec9,run1,generalization,,199,,,,199,63cc988c2a276a3b63c222e6,63cd90befec356cac6a7ae7b,$1.98,1.98,,,19.0,5.0,ti-na-he,sunanahe,True,,"{'1674416660186': 'blurred', '1674416661576': 'focused'}",1674416654277.0,,,,0.649,1.514,1674416413741.0,1674416775483.0,,,,,,mul,,2,no_count,,,,,,,,,True,False,False,False,False,False,True,False,False,False,True,,,,,,1,"{'su': 2.0, 'ko': 1.0, 'he': 4.0, 'na': 5.0, 'ti': 3.0}",2-5-5-4,3-5-4,3,0.0,mul,3.0,0.0,False,0.0,add,mul,mul,False
30988,63cd928858c4334a66b04ec9,run1,generalization,,199,,,,199,63cc988c2a276a3b63c222e6,63cd90befec356cac6a7ae7b,$1.98,1.98,,,20.0,5.0,he-na,hena,True,,"{'1674416660186': 'blurred', '1674416661576': 'focused'}",1674416654277.0,,,,1.363,3.761,1674416413741.0,1674416775483.0,,,,,,mul,,2,no_count,,,,,,,,,True,False,False,False,False,False,True,False,False,False,True,,,,,,1,"{'su': 2.0, 'ko': 1.0, 'he': 4.0, 'na': 5.0, 'ti': 3.0}",4-5,4-5,2,0.0,mul,11.0,0.0,False,inf,idk,mul,mul,True
30999,63cd929e58c4334a66b04f42,run1,generalization,,206,,,,206,63cc988c2a276a3b63c222e6,63cd90c4250365c43225b031,$2.02,2.02,,,11.0,5.0,se-ti-nu,setinu,True,,{},1674416716528.0,,,,0.827,2.636,1674416474987.0,1674416799034.0,,,,,,mul,,2,no_count,,,,,,,,,True,False,False,False,False,False,False,False,False,False,True,,,,,,1,"{'se': 2.0, 'ti': 5.0, 'ho': 4.0, 'ka': 3.0, 'nu': 1.0}",2-5-1,2-5-1,3,0.0,mul,3.0,0.0,False,0.0,add,mul,mul,True
31000,63cd929e58c4334a66b04f42,run1,generalization,,206,,,,206,63cc988c2a276a3b63c222e6,63cd90c4250365c43225b031,$2.02,2.02,,,12.0,5.0,se-ti-se,setise,True,,{},1674416716528.0,,,,1.15,2.395,1674416474987.0,1674416799034.0,,,,,,mul,,2,no_count,,,,,,,,,True,False,False,False,False,False,False,False,False,False,True,,,,,,1,"{'se': 2.0, 'ti': 5.0, 'ho': 4.0, 'ka': 3.0, 'nu': 1.0}",2-5-2,2-5-2,3,0.0,mul,3.0,0.0,False,0.0,add,mul,mul,True
31001,63cd929e58c4334a66b04f42,run1,generalization,,206,,,,206,63cc988c2a276a3b63c222e6,63cd90c4250365c43225b031,$2.02,2.02,,,13.0,5.0,se-ti-ka,setika,True,,{},1674416716528.0,,,,0.551,1.597,1674416474987.0,1674416799034.0,,,,,,mul,,2,no_count,,,,,,,,,True,False,False,False,False,False,False,False,False,False,True,,,,,,1,"{'se': 2.0, 'ti': 5.0, 'ho': 4.0, 'ka': 3.0, 'nu': 1.0}",2-5-3,2-5-3,3,0.0,mul,3.0,0.0,False,0.0,add,mul,mul,True
31002,63cd929e58c4334a66b04f42,run1,generalization,,206,,,,206,63cc988c2a276a3b63c222e6,63cd90c4250365c43225b031,$2.02,2.02,,,14.0,5.0,se-ti-ho,setiho,True,,{},1674416716528.0,,,,0.765,1.549,1674416474987.0,1674416799034.0,,,,,,mul,,2,no_count,,,,,,,,,True,False,False,False,False,False,False,False,False,False,True,,,,,,1,"{'se': 2.0, 'ti': 5.0, 'ho': 4.0, 'ka': 3.0, 'nu': 1.0}",2-5-4,2-5-4,3,0.0,mul,3.0,0.0,False,0.0,add,mul,mul,True
31003,63cd929e58c4334a66b04f42,run1,generalization,,206,,,,206,63cc988c2a276a3b63c222e6,63cd90c4250365c43225b031,$2.02,2.02,,,15.0,5.0,ka-ti,setiti,True,,{},1674416716528.0,,,,3.03,3.75,1674416474987.0,1674416799034.0,,,,,,mul,,2,no_count,,,,,,,,,True,False,False,False,False,False,False,False,False,False,True,,,,,,1,"{'se': 2.0, 'ti': 5.0, 'ho': 4.0, 'ka': 3.0, 'nu': 1.0}",2-5-5,3-5,2,0.0,mul,3.0,0.0,False,0.0,add,mul,mul,False
31004,63cd929e58c4334a66b04f42,run1,generalization,,206,,,,206,63cc988c2a276a3b63c222e6,63cd90c4250365c43225b031,$2.02,2.02,,,16.0,5.0,ka-ti-nu,setitinu,True,,{},1674416716528.0,,,,0.764,9.512,1674416474987.0,1674416799034.0,,,,,,mul,,2,no_count,,,,,,,,,True,False,False,False,False,False,False,False,False,False,True,,,,,,1,"{'se': 2.0, 'ti': 5.0, 'ho': 4.0, 'ka': 3.0, 'nu': 1.0}",2-5-5-1,3-5-1,3,0.0,mul,3.0,0.0,False,0.0,add,mul,mul,False
31005,63cd929e58c4334a66b04f42,run1,generalization,,206,,,,206,63cc988c2a276a3b63c222e6,63cd90c4250365c43225b031,$2.02,2.02,,,17.0,5.0,ka-ti-se,setitise,True,,{},1674416716528.0,,,,0.499,2.678,1674416474987.0,1674416799034.0,,,,,,mul,,2,no_count,,,,,,,,,True,False,False,False,False,False,False,False,False,False,True,,,,,,1,"{'se': 2.0, 'ti': 5.0, 'ho': 4.0, 'ka': 3.0, 'nu': 1.0}",2-5-5-2,3-5-2,3,0.0,mul,3.0,0.0,False,0.0,add,mul,mul,False
31006,63cd929e58c4334a66b04f42,run1,generalization,,206,,,,206,63cc988c2a276a3b63c222e6,63cd90c4250365c43225b031,$2.02,2.02,,,18.0,5.0,ka-ti-ka,setitika,True,,{},1674416716528.0,,,,0.864,4.107,1674416474987.0,1674416799034.0,,,,,,mul,,2,no_count,,,,,,,,,True,False,False,False,False,False,False,False,False,False,True,,,,,,1,"{'se': 2.0, 'ti': 5.0, 'ho': 4.0, 'ka': 3.0, 'nu': 1.0}",2-5-5-3,3-5-3,3,0.0,mul,3.0,0.0,False,0.0,add,mul,mul,False
31007,63cd929e58c4334a66b04f42,run1,generalization,,206,,,,206,63cc988c2a276a3b63c222e6,63cd90c4250365c43225b031,$2.02,2.02,,,19.0,5.0,ka-ti-ho,setitiho,True,,{},1674416716528.0,,,,1.196,2.73,1674416474987.0,1674416799034.0,,,,,,mul,,2,no_count,,,,,,,,,True,False,False,False,False,False,False,False,False,False,True,,,,,,1,"{'se': 2.0, 'ti': 5.0, 'ho': 4.0, 'ka': 3.0, 'nu': 1.0}",2-5-5-4,3-5-4,3,0.0,mul,3.0,0.0,False,0.0,add,mul,mul,False
31008,63cd929e58c4334a66b04f42,run1,generalization,,206,,,,206,63cc988c2a276a3b63c222e6,63cd90c4250365c43225b031,$2.02,2.02,,,20.0,5.0,ho-ti,hoti,True,,{},1674416716528.0,,,,4.597,1.455,1674416474987.0,1674416799034.0,,,,,,mul,,2,no_count,,,,,,,,,True,False,False,False,False,False,False,False,False,False,True,,,,,,1,"{'se': 2.0, 'ti': 5.0, 'ho': 4.0, 'ka': 3.0, 'nu': 1.0}",4-5,4-5,2,0.0,mul,11.0,0.0,False,inf,idk,mul,mul,True
31019,63cd92ae58c4334a66b04f9d,run1,generalization,,201,,,,201,63cc988c2a276a3b63c222e6,63cd90c104ce9aaee32c8ab4,$1.89,1.89,,,11.0,5.0,ni-ko-tu,nitu,False,,{},1674416688224.0,,,,12.497,2.192,1674416412339.0,1674416815300.0,,,,,,mul,,2,control,,,,,,,,,True,True,False,False,False,False,False,False,False,False,True,,,,,,1,"{'tu': 1.0, 'ni': 2.0, 'sa': 3.0, 'he': 4.0, 'ko': 5.0}",2-1,2-5-1,3,8.0,mul,8.0,8.0,False,inf,idk,bad,bad,False
31020,63cd92ae58c4334a66b04f9d,run1,generalization,,201,,,,201,63cc988c2a276a3b63c222e6,63cd90c104ce9aaee32c8ab4,$1.89,1.89,,,12.0,5.0,ni-ko-ni,nikotu,False,,{},1674416688224.0,,,,2.6,1.884,1674416412339.0,1674416815300.0,,,,,,mul,,2,control,,,,,,,,,True,True,False,False,False,False,False,False,False,False,True,,,,,,1,"{'tu': 1.0, 'ni': 2.0, 'sa': 3.0, 'he': 4.0, 'ko': 5.0}",2-5-1,2-5-2,3,1.0,mul,4.0,1.0,False,inf,idk,bad,bad,False
31021,63cd92ae58c4334a66b04f9d,run1,generalization,,201,,,,201,63cc988c2a276a3b63c222e6,63cd90c104ce9aaee32c8ab4,$1.89,1.89,,,13.0,5.0,ni-ko-sa,nikosa,True,,{},1674416688224.0,,,,0.784,2.236,1674416412339.0,1674416815300.0,,,,,,mul,,2,control,,,,,,,,,True,True,False,False,False,False,False,False,False,False,True,,,,,,1,"{'tu': 1.0, 'ni': 2.0, 'sa': 3.0, 'he': 4.0, 'ko': 5.0}",2-5-3,2-5-3,3,0.0,mul,3.0,0.0,False,inf,idk,mul,mul,True
31022,63cd92ae58c4334a66b04f9d,run1,generalization,,201,,,,201,63cc988c2a276a3b63c222e6,63cd90c104ce9aaee32c8ab4,$1.89,1.89,,,14.0,5.0,ni-ko-he,nikohe,True,,{},1674416688224.0,,,,0.784,3.82,1674416412339.0,1674416815300.0,,,,,,mul,,2,control,,,,,,,,,True,True,False,False,False,False,False,False,False,False,True,,,,,,1,"{'tu': 1.0, 'ni': 2.0, 'sa': 3.0, 'he': 4.0, 'ko': 5.0}",2-5-4,2-5-4,3,0.0,mul,3.0,0.0,False,0.0,add,mul,mul,True
31023,63cd92ae58c4334a66b04f9d,run1,generalization,,201,,,,201,63cc988c2a276a3b63c222e6,63cd90c104ce9aaee32c8ab4,$1.89,1.89,,,15.0,5.0,sa-ko,nikoko,True,,{},1674416688224.0,,,,0.356,1.852,1674416412339.0,1674416815300.0,,,,,,mul,,2,control,,,,,,,,,True,True,False,False,False,False,False,False,False,False,True,,,,,,1,"{'tu': 1.0, 'ni': 2.0, 'sa': 3.0, 'he': 4.0, 'ko': 5.0}",2-5-5,3-5,2,0.0,mul,3.0,0.0,False,0.0,add,mul,mul,False
31024,63cd92ae58c4334a66b04f9d,run1,generalization,,201,,,,201,63cc988c2a276a3b63c222e6,63cd90c104ce9aaee32c8ab4,$1.89,1.89,,,16.0,5.0,sa-ko-tu,nikokotu,True,,{},1674416688224.0,,,,0.631,7.993,1674416412339.0,1674416815300.0,,,,,,mul,,2,control,,,,,,,,,True,True,False,False,False,False,False,False,False,False,True,,,,,,1,"{'tu': 1.0, 'ni': 2.0, 'sa': 3.0, 'he': 4.0, 'ko': 5.0}",2-5-5-1,3-5-1,3,0.0,mul,3.0,0.0,False,0.0,add,mul,mul,False
31025,63cd92ae58c4334a66b04f9d,run1,generalization,,201,,,,201,63cc988c2a276a3b63c222e6,63cd90c104ce9aaee32c8ab4,$1.89,1.89,,,17.0,5.0,sa-ko-ni,nikokoni,True,,{},1674416688224.0,,,,0.628,4.548,1674416412339.0,1674416815300.0,,,,,,mul,,2,control,,,,,,,,,True,True,False,False,False,False,False,False,False,False,True,,,,,,1,"{'tu': 1.0, 'ni': 2.0, 'sa': 3.0, 'he': 4.0, 'ko': 5.0}",2-5-5-2,3-5-2,3,0.0,mul,3.0,0.0,False,0.0,add,mul,mul,False
31026,63cd92ae58c4334a66b04f9d,run1,generalization,,201,,,,201,63cc988c2a276a3b63c222e6,63cd90c104ce9aaee32c8ab4,$1.89,1.89,,,18.0,5.0,sa-ko-sa,nikokosa,True,,{},1674416688224.0,,,,0.612,3.787,1674416412339.0,1674416815300.0,,,,,,mul,,2,control,,,,,,,,,True,True,False,False,False,False,False,False,False,False,True,,,,,,1,"{'tu': 1.0, 'ni': 2.0, 'sa': 3.0, 'he': 4.0, 'ko': 5.0}",2-5-5-3,3-5-3,3,0.0,mul,3.0,0.0,False,0.0,add,mul,mul,False
31027,63cd92ae58c4334a66b04f9d,run1,generalization,,201,,,,201,63cc988c2a276a3b63c222e6,63cd90c104ce9aaee32c8ab4,$1.89,1.89,,,19.0,5.0,sa-ko-he,nikokohe,True,,{},1674416688224.0,,,,0.788,4.16,1674416412339.0,1674416815300.0,,,,,,mul,,2,control,,,,,,,,,True,True,False,False,False,False,False,False,False,False,True,,,,,,1,"{'tu': 1.0, 'ni': 2.0, 'sa': 3.0, 'he': 4.0, 'ko': 5.0}",2-5-5-4,3-5-4,3,0.0,mul,3.0,0.0,False,0.0,add,mul,mul,False
31028,63cd92ae58c4334a66b04f9d,run1,generalization,,201,,,,201,63cc988c2a276a3b63c222e6,63cd90c104ce9aaee32c8ab4,$1.89,1.89,,,20.0,5.0,he-ko,niniko,False,,{},1674416688224.0,,,,5.124,2.305,1674416412339.0,1674416815300.0,,,,,,mul,,2,control,,,,,,,,,True,True,False,False,False,False,False,False,False,False,True,,,,,,1,"{'tu': 1.0, 'ni': 2.0, 'sa': 3.0, 'he': 4.0, 'ko': 5.0}",2-2-5,4-5,2,8.0,mul,11.0,8.0,False,inf,idk,bad,bad,False
31039,63cd92bf58c4334a66b05005,run1,generalization,,202,,,,202,63cc988c2a276a3b63c222e6,63cd90bf64f73b22f7d9d73c,$1.92,1.92,,,11.0,5.0,na-ki-te,kit,False,,"{'1674416689289': 'blurred', '1674416690828': 'focused', '1674416690829': 'focused'}",1674416682034.0,,,,6.153,4.126,1674416411912.0,1674416829178.0,,,,,,add,,2,no_syntax,,,,,,,,,False,True,False,False,False,False,True,False,False,False,True,,,,,,1,"{'ki-te': 1.0, 'ki-hu': 2.0, 'na-ki': 3.0, 'ki-so': 4.0, 'ki-na': 5.0, 'te': 6.0, 'hu': 7.0, 'ki': 8.0, 'so': 9.0, 'na': 10.0}",8,10-8-6,3,3.0,add,3.0,3.0,False,inf,idk,bad,bad,False
31040,63cd92bf58c4334a66b05005,run1,generalization,,202,,,,202,63cc988c2a276a3b63c222e6,63cd90bf64f73b22f7d9d73c,$1.92,1.92,,,12.0,5.0,na-ki-na,kih,False,,"{'1674416689289': 'blurred', '1674416690828': 'focused', '1674416690829': 'focused'}",1674416682034.0,,,,0.286,1.004,1674416411912.0,1674416829178.0,,,,,,add,,2,no_syntax,,,,,,,,,False,True,False,False,False,False,True,False,False,False,True,,,,,,1,"{'ki-te': 1.0, 'ki-hu': 2.0, 'na-ki': 3.0, 'ki-so': 4.0, 'ki-na': 5.0, 'te': 6.0, 'hu': 7.0, 'ki': 8.0, 'so': 9.0, 'na': 10.0}",8,10-8-10,3,4.0,add,4.0,4.0,False,inf,idk,bad,bad,False
31041,63cd92bf58c4334a66b05005,run1,generalization,,202,,,,202,63cc988c2a276a3b63c222e6,63cd90bf64f73b22f7d9d73c,$1.92,1.92,,,13.0,5.0,na-ki-so,na,False,,"{'1674416689289': 'blurred', '1674416690828': 'focused', '1674416690829': 'focused'}",1674416682034.0,,,,2.044,0.747,1674416411912.0,1674416829178.0,,,,,,add,,2,no_syntax,,,,,,,,,False,True,False,False,False,False,True,False,False,False,True,,,,,,1,"{'ki-te': 1.0, 'ki-hu': 2.0, 'na-ki': 3.0, 'ki-so': 4.0, 'ki-na': 5.0, 'te': 6.0, 'hu': 7.0, 'ki': 8.0, 'so': 9.0, 'na': 10.0}",10,10-8-9,3,3.0,add,3.0,3.0,False,inf,idk,bad,bad,False
31042,63cd92bf58c4334a66b05005,run1,generalization,,202,,,,202,63cc988c2a276a3b63c222e6,63cd90bf64f73b22f7d9d73c,$1.92,1.92,,,14.0,5.0,na-ki-hu,kis,False,,"{'1674416689289': 'blurred', '1674416690828': 'focused', '1674416690829': 'focused'}",1674416682034.0,,,,1.599,3.504,1674416411912.0,1674416829178.0,,,,,,add,,2,no_syntax,,,,,,,,,False,True,False,False,False,False,True,False,False,False,True,,,,,,1,"{'ki-te': 1.0, 'ki-hu': 2.0, 'na-ki': 3.0, 'ki-so': 4.0, 'ki-na': 5.0, 'te': 6.0, 'hu': 7.0, 'ki': 8.0, 'so': 9.0, 'na': 10.0}",8,10-8-7,3,6.0,add,6.0,6.0,False,inf,idk,bad,bad,False
31043,63cd92bf58c4334a66b05005,run1,generalization,,202,,,,202,63cc988c2a276a3b63c222e6,63cd90bf64f73b22f7d9d73c,$1.92,1.92,,,15.0,5.0,so-ki,kin,False,,"{'1674416689289': 'blurred', '1674416690828': 'focused', '1674416690829': 'focused'}",1674416682034.0,,,,0.382,0.948,1674416411912.0,1674416829178.0,,,,,,add,,2,no_syntax,,,,,,,,,False,True,False,False,False,False,True,False,False,False,True,,,,,,1,"{'ki-te': 1.0, 'ki-hu': 2.0, 'na-ki': 3.0, 'ki-so': 4.0, 'ki-na': 5.0, 'te': 6.0, 'hu': 7.0, 'ki': 8.0, 'so': 9.0, 'na': 10.0}",8,9-8,2,7.0,add,7.0,7.0,False,inf,idk,bad,bad,False
31044,63cd92bf58c4334a66b05005,run1,generalization,,202,,,,202,63cc988c2a276a3b63c222e6,63cd90bf64f73b22f7d9d73c,$1.92,1.92,,,16.0,5.0,so-ki-te,kitete,False,,"{'1674416689289': 'blurred', '1674416690828': 'focused', '1674416690829': 'focused'}",1674416682034.0,,,,32.548,4.681,1674416411912.0,1674416829178.0,,,,,,add,,2,no_syntax,,,,,,,,,False,True,False,False,False,False,True,False,False,False,True,,,,,,1,"{'ki-te': 1.0, 'ki-hu': 2.0, 'na-ki': 3.0, 'ki-so': 4.0, 'ki-na': 5.0, 'te': 6.0, 'hu': 7.0, 'ki': 8.0, 'so': 9.0, 'na': 10.0}",8-6-6,9-8-6,3,4.0,add,4.0,4.0,False,inf,idk,bad,bad,False
31045,63cd92bf58c4334a66b05005,run1,generalization,,202,,,,202,63cc988c2a276a3b63c222e6,63cd90bf64f73b22f7d9d73c,$1.92,1.92,,,17.0,5.0,so-ki-na,kitehu,True,,"{'1674416689289': 'blurred', '1674416690828': 'focused', '1674416690829': 'focused'}",1674416682034.0,,,,2.175,10.208,1674416411912.0,1674416829178.0,,,,,,add_sf,,2,no_syntax,,,,,,,,,False,True,False,False,False,False,True,False,False,False,True,,,,,,1,"{'ki-te': 1.0, 'ki-hu': 2.0, 'na-ki': 3.0, 'ki-so': 4.0, 'ki-na': 5.0, 'te': 6.0, 'hu': 7.0, 'ki': 8.0, 'so': 9.0, 'na': 10.0}",8-6-7,9-8-10,3,0.0,add,4.0,33.0,True,0.0,add,add,add_sf,False
31046,63cd92bf58c4334a66b05005,run1,generalization,,202,,,,202,63cc988c2a276a3b63c222e6,63cd90bf64f73b22f7d9d73c,$1.92,1.92,,,18.0,5.0,so-ki-so,kiteki,True,,"{'1674416689289': 'blurred', '1674416690828': 'focused', '1674416690829': 'focused'}",1674416682034.0,,,,1.279,10.506,1674416411912.0,1674416829178.0,,,,,,add_sf,,2,no_syntax,,,,,,,,,False,True,False,False,False,False,True,False,False,False,True,,,,,,1,"{'ki-te': 1.0, 'ki-hu': 2.0, 'na-ki': 3.0, 'ki-so': 4.0, 'ki-na': 5.0, 'te': 6.0, 'hu': 7.0, 'ki': 8.0, 'so': 9.0, 'na': 10.0}",8-6-8,9-8-9,3,0.0,add,4.0,38.0,True,0.0,add,add,add_sf,False
31047,63cd92bf58c4334a66b05005,run1,generalization,,202,,,,202,63cc988c2a276a3b63c222e6,63cd90bf64f73b22f7d9d73c,$1.92,1.92,,,19.0,5.0,so-ki-hu,kiteso,True,,"{'1674416689289': 'blurred', '1674416690828': 'focused', '1674416690829': 'focused'}",1674416682034.0,,,,0.319,1.621,1674416411912.0,1674416829178.0,,,,,,add_sf,,2,no_syntax,,,,,,,,,False,True,False,False,False,False,True,False,False,False,True,,,,,,1,"{'ki-te': 1.0, 'ki-hu': 2.0, 'na-ki': 3.0, 'ki-so': 4.0, 'ki-na': 5.0, 'te': 6.0, 'hu': 7.0, 'ki': 8.0, 'so': 9.0, 'na': 10.0}",8-6-9,9-8-7,3,0.0,add,4.0,43.0,True,0.0,add,add,add_sf,False
31048,63cd92bf58c4334a66b05005,run1,generalization,,202,,,,202,63cc988c2a276a3b63c222e6,63cd90bf64f73b22f7d9d73c,$1.92,1.92,,,20.0,5.0,hu-ki,kitena,True,,"{'1674416689289': 'blurred', '1674416690828': 'focused', '1674416690829': 'focused'}",1674416682034.0,,,,1.085,4.394,1674416411912.0,1674416829178.0,,,,,,add_sf,,2,no_syntax,,,,,,,,,False,True,False,False,False,False,True,False,False,False,True,,,,,,1,"{'ki-te': 1.0, 'ki-hu': 2.0, 'na-ki': 3.0, 'ki-so': 4.0, 'ki-na': 5.0, 'te': 6.0, 'hu': 7.0, 'ki': 8.0, 'so': 9.0, 'na': 10.0}",8-6-10,7-8,2,0.0,add,4.0,48.0,True,0.0,add,add,add_sf,False
31059,63cd92fd58c4334a66b0515c,run1,generalization,,209,,,,209,63cc988c2a276a3b63c222e6,63cd90c4daa27a66f65b28f4,$1.98,1.98,,,11.0,5.0,he-sa-tu,hetu,False,,{},1674416786863.0,,,,0.326,3.293,1674416505404.0,1674416893051.0,,,,,,mul,,2,no_count,,,,,,,,,True,False,False,False,False,False,False,False,False,False,True,,,,,,1,"{'he': 2.0, 'no': 3.0, 'ki': 4.0, 'tu': 1.0, 'sa': 5.0}",2-1,2-5-1,3,8.0,mul,8.0,8.0,False,inf,idk,bad,bad,False
31060,63cd92fd58c4334a66b0515c,run1,generalization,,209,,,,209,63cc988c2a276a3b63c222e6,63cd90c4daa27a66f65b28f4,$1.98,1.98,,,12.0,5.0,he-sa-he,hehe,True,,{},1674416786863.0,,,,0.337,4.586,1674416505404.0,1674416893051.0,,,,,,add_sf,,2,no_count,,,,,,,,,True,False,False,False,False,False,False,False,False,False,True,,,,,,1,"{'he': 2.0, 'no': 3.0, 'ki': 4.0, 'tu': 1.0, 'sa': 5.0}",2-2,2-5-2,3,0.0,add,8.0,8.0,True,0.0,add,add,add_sf,False
31061,63cd92fd58c4334a66b0515c,run1,generalization,,209,,,,209,63cc988c2a276a3b63c222e6,63cd90c4daa27a66f65b28f4,$1.98,1.98,,,13.0,5.0,he-sa-no,heno,True,,{},1674416786863.0,,,,8.929,7.548,1674416505404.0,1674416893051.0,,,,,,add_sf,,2,no_count,,,,,,,,,True,False,False,False,False,False,False,False,False,False,True,,,,,,1,"{'he': 2.0, 'no': 3.0, 'ki': 4.0, 'tu': 1.0, 'sa': 5.0}",2-3,2-5-3,3,0.0,add,8.0,7.0,True,0.0,add,add,add_sf,False
31062,63cd92fd58c4334a66b0515c,run1,generalization,,209,,,,209,63cc988c2a276a3b63c222e6,63cd90c4daa27a66f65b28f4,$1.98,1.98,,,14.0,5.0,he-sa-ki,heki,True,,{},1674416786863.0,,,,0.816,2.529,1674416505404.0,1674416893051.0,,,,,,add_sf,,2,no_count,,,,,,,,,True,False,False,False,False,False,False,False,False,False,True,,,,,,1,"{'he': 2.0, 'no': 3.0, 'ki': 4.0, 'tu': 1.0, 'sa': 5.0}",2-4,2-5-4,3,0.0,add,8.0,6.0,True,0.0,add,add,add_sf,False
31063,63cd92fd58c4334a66b0515c,run1,generalization,,209,,,,209,63cc988c2a276a3b63c222e6,63cd90c4daa27a66f65b28f4,$1.98,1.98,,,15.0,5.0,no-sa,hesa,True,,{},1674416786863.0,,,,0.322,1.062,1674416505404.0,1674416893051.0,,,,,,add_sf,,2,no_count,,,,,,,,,True,False,False,False,False,False,False,False,False,False,True,,,,,,1,"{'he': 2.0, 'no': 3.0, 'ki': 4.0, 'tu': 1.0, 'sa': 5.0}",2-5,3-5,2,0.0,add,8.0,5.0,True,0.0,add,add,add_sf,False
31064,63cd92fd58c4334a66b0515c,run1,generalization,,209,,,,209,63cc988c2a276a3b63c222e6,63cd90c4daa27a66f65b28f4,$1.98,1.98,,,16.0,5.0,no-sa-tu,hesatu,True,,{},1674416786863.0,,,,0.491,3.063,1674416505404.0,1674416893051.0,,,,,,add_sf,,2,no_count,,,,,,,,,True,False,False,False,False,False,False,False,False,False,True,,,,,,1,"{'he': 2.0, 'no': 3.0, 'ki': 4.0, 'tu': 1.0, 'sa': 5.0}",2-5-1,3-5-1,3,0.0,add,8.0,5.0,True,0.0,add,add,add_sf,False
31065,63cd92fd58c4334a66b0515c,run1,generalization,,209,,,,209,63cc988c2a276a3b63c222e6,63cd90c4daa27a66f65b28f4,$1.98,1.98,,,17.0,5.0,no-sa-he,hesahe,True,,{},1674416786863.0,,,,0.157,3.133,1674416505404.0,1674416893051.0,,,,,,add_sf,,2,no_count,,,,,,,,,True,False,False,False,False,False,False,False,False,False,True,,,,,,1,"{'he': 2.0, 'no': 3.0, 'ki': 4.0, 'tu': 1.0, 'sa': 5.0}",2-5-2,3-5-2,3,0.0,add,8.0,5.0,True,0.0,add,add,add_sf,False
31066,63cd92fd58c4334a66b0515c,run1,generalization,,209,,,,209,63cc988c2a276a3b63c222e6,63cd90c4daa27a66f65b28f4,$1.98,1.98,,,18.0,5.0,no-sa-no,hesano,True,,{},1674416786863.0,,,,0.14,2.674,1674416505404.0,1674416893051.0,,,,,,add_sf,,2,no_count,,,,,,,,,True,False,False,False,False,False,False,False,False,False,True,,,,,,1,"{'he': 2.0, 'no': 3.0, 'ki': 4.0, 'tu': 1.0, 'sa': 5.0}",2-5-3,3-5-3,3,0.0,add,8.0,5.0,True,0.0,add,add,add_sf,False
31067,63cd92fd58c4334a66b0515c,run1,generalization,,209,,,,209,63cc988c2a276a3b63c222e6,63cd90c4daa27a66f65b28f4,$1.98,1.98,,,19.0,5.0,no-sa-ki,hesaki,True,,{},1674416786863.0,,,,0.229,6.409,1674416505404.0,1674416893051.0,,,,,,add_sf,,2,no_count,,,,,,,,,True,False,False,False,False,False,False,False,False,False,True,,,,,,1,"{'he': 2.0, 'no': 3.0, 'ki': 4.0, 'tu': 1.0, 'sa': 5.0}",2-5-4,3-5-4,3,0.0,add,8.0,5.0,True,0.0,add,add,add_sf,False
31068,63cd92fd58c4334a66b0515c,run1,generalization,,209,,,,209,63cc988c2a276a3b63c222e6,63cd90c4daa27a66f65b28f4,$1.98,1.98,,,20.0,5.0,ki-sa,nosa,True,,{},1674416786863.0,,,,7.866,5.569,1674416505404.0,1674416893051.0,,,,,,mul_sf,,2,no_count,,,,,,,,,True,False,False,False,False,False,False,False,False,False,True,,,,,,1,"{'he': 2.0, 'no': 3.0, 'ki': 4.0, 'tu': 1.0, 'sa': 5.0}",3-5,4-5,2,0.0,mul,12.0,5.0,True,0.0,mul,mul,mul_sf,False
31079,63cd936758c4334a66b05333,run1,generalization,,203,,,,203,63cc988c2a276a3b63c222e6,63cd90c5957ca83dce489bfb,$1.85,1.85,,,11.0,5.0,te-ka-nu,tekanu,True,,"{'1674416940990': 'blurred', '1674416943292': 'focused'}",1674416835993.0,,,,,8.242,1674416416374.0,1674416999611.0,,,,,,mul,,2,no_count,,,,,,,,,True,False,False,False,False,False,True,False,False,False,True,,,,,,1,"{'te': 2.0, 'hi': 4.0, 'nu': 1.0, 'ka': 5.0, 'so': 3.0}",2-5-1,2-5-1,3,0.0,mul,3.0,0.0,False,0.0,add,mul,mul,True
31080,63cd936758c4334a66b05333,run1,generalization,,203,,,,203,63cc988c2a276a3b63c222e6,63cd90c5957ca83dce489bfb,$1.85,1.85,,,12.0,5.0,te-ka-te,tekate,True,,"{'1674416940990': 'blurred', '1674416943292': 'focused'}",1674416835993.0,,,,0.965,4.016,1674416416374.0,1674416999611.0,,,,,,mul,,2,no_count,,,,,,,,,True,False,False,False,False,False,True,False,False,False,True,,,,,,1,"{'te': 2.0, 'hi': 4.0, 'nu': 1.0, 'ka': 5.0, 'so': 3.0}",2-5-2,2-5-2,3,0.0,mul,3.0,0.0,False,0.0,add,mul,mul,True
31081,63cd936758c4334a66b05333,run1,generalization,,203,,,,203,63cc988c2a276a3b63c222e6,63cd90c5957ca83dce489bfb,$1.85,1.85,,,13.0,5.0,te-ka-so,tekaso,True,,"{'1674416940990': 'blurred', '1674416943292': 'focused'}",1674416835993.0,,,,1.047,5.628,1674416416374.0,1674416999611.0,,,,,,mul,,2,no_count,,,,,,,,,True,False,False,False,False,False,True,False,False,False,True,,,,,,1,"{'te': 2.0, 'hi': 4.0, 'nu': 1.0, 'ka': 5.0, 'so': 3.0}",2-5-3,2-5-3,3,0.0,mul,3.0,0.0,False,0.0,add,mul,mul,True
31082,63cd936758c4334a66b05333,run1,generalization,,203,,,,203,63cc988c2a276a3b63c222e6,63cd90c5957ca83dce489bfb,$1.85,1.85,,,14.0,5.0,te-ka-hi,tekahi,True,,"{'1674416940990': 'blurred', '1674416943292': 'focused'}",1674416835993.0,,,,0.669,5.562,1674416416374.0,1674416999611.0,,,,,,mul,,2,no_count,,,,,,,,,True,False,False,False,False,False,True,False,False,False,True,,,,,,1,"{'te': 2.0, 'hi': 4.0, 'nu': 1.0, 'ka': 5.0, 'so': 3.0}",2-5-4,2-5-4,3,0.0,mul,3.0,0.0,False,0.0,add,mul,mul,True
31083,63cd936758c4334a66b05333,run1,generalization,,203,,,,203,63cc988c2a276a3b63c222e6,63cd90c5957ca83dce489bfb,$1.85,1.85,,,15.0,5.0,so-ka,tekaka,True,,"{'1674416940990': 'blurred', '1674416943292': 'focused'}",1674416835993.0,,,,0.902,3.599,1674416416374.0,1674416999611.0,,,,,,mul,,2,no_count,,,,,,,,,True,False,False,False,False,False,True,False,False,False,True,,,,,,1,"{'te': 2.0, 'hi': 4.0, 'nu': 1.0, 'ka': 5.0, 'so': 3.0}",2-5-5,3-5,2,0.0,mul,3.0,0.0,False,0.0,add,mul,mul,False
31084,63cd936758c4334a66b05333,run1,generalization,,203,,,,203,63cc988c2a276a3b63c222e6,63cd90c5957ca83dce489bfb,$1.85,1.85,,,16.0,5.0,so-ka-nu,tekakanu,True,,"{'1674416940990': 'blurred', '1674416943292': 'focused'}",1674416835993.0,,,,0.626,,1674416416374.0,1674416999611.0,,,,,,mul,,2,no_count,,,,,,,,,True,False,False,False,False,False,True,False,False,False,True,,,,,,1,"{'te': 2.0, 'hi': 4.0, 'nu': 1.0, 'ka': 5.0, 'so': 3.0}",2-5-5-1,3-5-1,3,0.0,mul,3.0,0.0,False,0.0,add,mul,mul,False
31085,63cd936758c4334a66b05333,run1,generalization,,203,,,,203,63cc988c2a276a3b63c222e6,63cd90c5957ca83dce489bfb,$1.85,1.85,,,17.0,5.0,so-ka-te, ,False,,"{'1674416940990': 'blurred', '1674416943292': 'focused'}",1674416835993.0,,,,0.621,0.699,1674416416374.0,1674416999611.0,,,,,,mul,,2,no_count,,,,,,,,,True,False,False,False,False,False,True,False,False,False,True,,,,,,1,"{'te': 2.0, 'hi': 4.0, 'nu': 1.0, 'ka': 5.0, 'so': 3.0}", ,3-5-2,3,17.0,mul,17.0,17.0,False,inf,idk,bad,bad,False
31086,63cd936758c4334a66b05333,run1,generalization,,203,,,,203,63cc988c2a276a3b63c222e6,63cd90c5957ca83dce489bfb,$1.85,1.85,,,18.0,5.0,so-ka-so, ,False,,"{'1674416940990': 'blurred', '1674416943292': 'focused'}",1674416835993.0,,,,0.499,0.526,1674416416374.0,1674416999611.0,,,,,,mul,,2,no_count,,,,,,,,,True,False,False,False,False,False,True,False,False,False,True,,,,,,1,"{'te': 2.0, 'hi': 4.0, 'nu': 1.0, 'ka': 5.0, 'so': 3.0}", ,3-5-3,3,18.0,mul,18.0,18.0,False,inf,idk,bad,bad,False
31087,63cd936758c4334a66b05333,run1,generalization,,203,,,,203,63cc988c2a276a3b63c222e6,63cd90c5957ca83dce489bfb,$1.85,1.85,,,19.0,5.0,so-ka-hi, ,False,,"{'1674416940990': 'blurred', '1674416943292': 'focused'}",1674416835993.0,,,,0.328,0.682,1674416416374.0,1674416999611.0,,,,,,mul,,2,no_count,,,,,,,,,True,False,False,False,False,False,True,False,False,False,True,,,,,,1,"{'te': 2.0, 'hi': 4.0, 'nu': 1.0, 'ka': 5.0, 'so': 3.0}", ,3-5-4,3,19.0,mul,19.0,19.0,False,inf,idk,bad,bad,False
31088,63cd936758c4334a66b05333,run1,generalization,,203,,,,203,63cc988c2a276a3b63c222e6,63cd90c5957ca83dce489bfb,$1.85,1.85,,,20.0,5.0,hi-ka, ,False,,"{'1674416940990': 'blurred', '1674416943292': 'focused'}",1674416835993.0,,,,0.051,0.43,1674416416374.0,1674416999611.0,,,,,,mul,,2,no_count,,,,,,,,,True,False,False,False,False,False,True,False,False,False,True,,,,,,1,"{'te': 2.0, 'hi': 4.0, 'nu': 1.0, 'ka': 5.0, 'so': 3.0}", ,4-5,2,20.0,mul,20.0,20.0,False,inf,idk,bad,bad,False
31099,63cd938758c4334a66b05393,run1,generalization,,214,,,,214,63cc988c2a276a3b63c222e6,63cd90bff81f65ef9a5c5db3,$1.98,1.98,,,11.0,5.0,ta-se-hi,tasehi,True,,{},1674416879532.0,,,,31.241,2.127,1674416593830.0,1674417030882.0,,,,,,mul,,2,no_count,,,,,,,,,True,False,False,False,False,False,False,False,False,False,True,,,,,,1,"{'se': 5.0, 'ko': 3.0, 'ta': 2.0, 'nu': 4.0, 'hi': 1.0}",2-5-1,2-5-1,3,0.0,mul,3.0,0.0,False,0.0,add,mul,mul,True
31100,63cd938758c4334a66b05393,run1,generalization,,214,,,,214,63cc988c2a276a3b63c222e6,63cd90bff81f65ef9a5c5db3,$1.98,1.98,,,12.0,5.0,ta-se-ta,taseta,True,,{},1674416879532.0,,,,1.192,,1674416593830.0,1674417030882.0,,,,,,mul,,2,no_count,,,,,,,,,True,False,False,False,False,False,False,False,False,False,True,,,,,,1,"{'se': 5.0, 'ko': 3.0, 'ta': 2.0, 'nu': 4.0, 'hi': 1.0}",2-5-2,2-5-2,3,0.0,mul,3.0,0.0,False,0.0,add,mul,mul,True
31101,63cd938758c4334a66b05393,run1,generalization,,214,,,,214,63cc988c2a276a3b63c222e6,63cd90bff81f65ef9a5c5db3,$1.98,1.98,,,13.0,5.0,ta-se-ko,taseko,True,,{},1674416879532.0,,,,0.824,2.648,1674416593830.0,1674417030882.0,,,,,,mul,,2,no_count,,,,,,,,,True,False,False,False,False,False,False,False,False,False,True,,,,,,1,"{'se': 5.0, 'ko': 3.0, 'ta': 2.0, 'nu': 4.0, 'hi': 1.0}",2-5-3,2-5-3,3,0.0,mul,3.0,0.0,False,0.0,add,mul,mul,True
31102,63cd938758c4334a66b05393,run1,generalization,,214,,,,214,63cc988c2a276a3b63c222e6,63cd90bff81f65ef9a5c5db3,$1.98,1.98,,,14.0,5.0,ta-se-nu,tasenu,True,,{},1674416879532.0,,,,0.663,5.329,1674416593830.0,1674417030882.0,,,,,,mul,,2,no_count,,,,,,,,,True,False,False,False,False,False,False,False,False,False,True,,,,,,1,"{'se': 5.0, 'ko': 3.0, 'ta': 2.0, 'nu': 4.0, 'hi': 1.0}",2-5-4,2-5-4,3,0.0,mul,3.0,0.0,False,0.0,add,mul,mul,True
31103,63cd938758c4334a66b05393,run1,generalization,,214,,,,214,63cc988c2a276a3b63c222e6,63cd90bff81f65ef9a5c5db3,$1.98,1.98,,,15.0,5.0,ko-se,tasese,True,,{},1674416879532.0,,,,1.695,1.729,1674416593830.0,1674417030882.0,,,,,,mul,,2,no_count,,,,,,,,,True,False,False,False,False,False,False,False,False,False,True,,,,,,1,"{'se': 5.0, 'ko': 3.0, 'ta': 2.0, 'nu': 4.0, 'hi': 1.0}",2-5-5,3-5,2,0.0,mul,3.0,0.0,False,0.0,add,mul,mul,False
31104,63cd938758c4334a66b05393,run1,generalization,,214,,,,214,63cc988c2a276a3b63c222e6,63cd90bff81f65ef9a5c5db3,$1.98,1.98,,,16.0,5.0,ko-se-hi,taseko,False,,{},1674416879532.0,,,,0.376,,1674416593830.0,1674417030882.0,,,,,,mul,,2,no_count,,,,,,,,,True,False,False,False,False,False,False,False,False,False,True,,,,,,1,"{'se': 5.0, 'ko': 3.0, 'ta': 2.0, 'nu': 4.0, 'hi': 1.0}",2-5-3,3-5-1,3,3.0,mul,6.0,3.0,False,inf,idk,bad,bad,False
31105,63cd938758c4334a66b05393,run1,generalization,,214,,,,214,63cc988c2a276a3b63c222e6,63cd90bff81f65ef9a5c5db3,$1.98,1.98,,,17.0,5.0,ko-se-ta,taseseta,True,,{},1674416879532.0,,,,1.001,8.311,1674416593830.0,1674417030882.0,,,,,,mul,,2,no_count,,,,,,,,,True,False,False,False,False,False,False,False,False,False,True,,,,,,1,"{'se': 5.0, 'ko': 3.0, 'ta': 2.0, 'nu': 4.0, 'hi': 1.0}",2-5-5-2,3-5-2,3,0.0,mul,3.0,0.0,False,inf,idk,mul,mul,False
31106,63cd938758c4334a66b05393,run1,generalization,,214,,,,214,63cc988c2a276a3b63c222e6,63cd90bff81f65ef9a5c5db3,$1.98,1.98,,,18.0,5.0,ko-se-ko,tasenu,False,,{},1674416879532.0,,,,2.241,4.975,1674416593830.0,1674417030882.0,,,,,,mul,,2,no_count,,,,,,,,,True,False,False,False,False,False,False,False,False,False,True,,,,,,1,"{'se': 5.0, 'ko': 3.0, 'ta': 2.0, 'nu': 4.0, 'hi': 1.0}",2-5-4,3-5-3,3,4.0,mul,7.0,4.0,False,inf,idk,bad,bad,False
31107,63cd938758c4334a66b05393,run1,generalization,,214,,,,214,63cc988c2a276a3b63c222e6,63cd90bff81f65ef9a5c5db3,$1.98,1.98,,,19.0,5.0,ko-se-nu,tasesenu,True,,{},1674416879532.0,,,,1.152,3.697,1674416593830.0,1674417030882.0,,,,,,mul,,2,no_count,,,,,,,,,True,False,False,False,False,False,False,False,False,False,True,,,,,,1,"{'se': 5.0, 'ko': 3.0, 'ta': 2.0, 'nu': 4.0, 'hi': 1.0}",2-5-5-4,3-5-4,3,0.0,mul,3.0,0.0,False,inf,idk,mul,mul,False
31108,63cd938758c4334a66b05393,run1,generalization,,214,,,,214,63cc988c2a276a3b63c222e6,63cd90bff81f65ef9a5c5db3,$1.98,1.98,,,20.0,5.0,nu-se,nuse,True,,{},1674416879532.0,,,,6.312,1.08,1674416593830.0,1674417030882.0,,,,,,mul,,2,no_count,,,,,,,,,True,False,False,False,False,False,False,False,False,False,True,,,,,,1,"{'se': 5.0, 'ko': 3.0, 'ta': 2.0, 'nu': 4.0, 'hi': 1.0}",4-5,4-5,2,0.0,mul,11.0,0.0,False,inf,idk,mul,mul,True
31119,63cd939b58c4334a66b053c9,run1,generalization,,205,,,,205,63cc988c2a276a3b63c222e6,63cd90bb574360aaf178d455,$1.51,1.51,,,11.0,5.0,sa-ho-ti,ti,True,,"{'1674416866626': 'blurred', '1674416869230': 'focused', '1674416872054': 'blurred', '1674416873814': 'focused', '1674416920462': 'blurred', '1674416925542': 'focused', '1674416944927': 'blurred', '1674416945952': 'focused', '1674416971032': 'blurred', '1674416972132': 'focused'}",1674416857864.0,,,,7.311,1.37,1674416471066.0,1674417051118.0,,,,,,add_sf,,2,no_syntax,,,,,,,,,False,True,False,False,False,False,True,False,False,False,True,,,,,,1,"{'ho-ti': 1.0, 'sa-ho': 2.0, 'ho-ke': 3.0, 'sa': 4.0, 'ho': 5.0, 'ho-nu': 6.0, 'ho-sa': 7.0, 'ke': 8.0, 'nu': 9.0, 'ti': 10.0}",10,4-5-10,3,0.0,add,1.0,1.0,True,0.0,add,add,add_sf,False
31120,63cd939b58c4334a66b053c9,run1,generalization,,205,,,,205,63cc988c2a276a3b63c222e6,63cd90bb574360aaf178d455,$1.51,1.51,,,12.0,5.0,sa-ho-sa,nu,False,,"{'1674416866626': 'blurred', '1674416869230': 'focused', '1674416872054': 'blurred', '1674416873814': 'focused', '1674416920462': 'blurred', '1674416925542': 'focused', '1674416944927': 'blurred', '1674416945952': 'focused', '1674416971032': 'blurred', '1674416972132': 'focused'}",1674416857864.0,,,,8.248,0.583,1674416471066.0,1674417051118.0,,,,,,add,,2,no_syntax,,,,,,,,,False,True,False,False,False,False,True,False,False,False,True,,,,,,1,"{'ho-ti': 1.0, 'sa-ho': 2.0, 'ho-ke': 3.0, 'sa': 4.0, 'ho': 5.0, 'ho-nu': 6.0, 'ho-sa': 7.0, 'ke': 8.0, 'nu': 9.0, 'ti': 10.0}",9,4-5-4,3,3.0,add,3.0,3.0,False,inf,idk,bad,bad,False
31121,63cd939b58c4334a66b053c9,run1,generalization,,205,,,,205,63cc988c2a276a3b63c222e6,63cd90bb574360aaf178d455,$1.51,1.51,,,13.0,5.0,sa-ho-nu,ka,False,,"{'1674416866626': 'blurred', '1674416869230': 'focused', '1674416872054': 'blurred', '1674416873814': 'focused', '1674416920462': 'blurred', '1674416925542': 'focused', '1674416944927': 'blurred', '1674416945952': 'focused', '1674416971032': 'blurred', '1674416972132': 'focused'}",1674416857864.0,,,,4.757,2.428,1674416471066.0,1674417051118.0,,,,,,add,,2,no_syntax,,,,,,,,,False,True,False,False,False,False,True,False,False,False,True,,,,,,1,"{'ho-ti': 1.0, 'sa-ho': 2.0, 'ho-ke': 3.0, 'sa': 4.0, 'ho': 5.0, 'ho-nu': 6.0, 'ho-sa': 7.0, 'ke': 8.0, 'nu': 9.0, 'ti': 10.0}",,4-5-9,3,13.0,add,13.0,13.0,False,inf,idk,bad,bad,False
31122,63cd939b58c4334a66b053c9,run1,generalization,,205,,,,205,63cc988c2a276a3b63c222e6,63cd90bb574360aaf178d455,$1.51,1.51,,,14.0,5.0,sa-ho-ke,tu,False,,"{'1674416866626': 'blurred', '1674416869230': 'focused', '1674416872054': 'blurred', '1674416873814': 'focused', '1674416920462': 'blurred', '1674416925542': 'focused', '1674416944927': 'blurred', '1674416945952': 'focused', '1674416971032': 'blurred', '1674416972132': 'focused'}",1674416857864.0,,,,1.568,0.485,1674416471066.0,1674417051118.0,,,,,,add,,2,no_syntax,,,,,,,,,False,True,False,False,False,False,True,False,False,False,True,,,,,,1,"{'ho-ti': 1.0, 'sa-ho': 2.0, 'ho-ke': 3.0, 'sa': 4.0, 'ho': 5.0, 'ho-nu': 6.0, 'ho-sa': 7.0, 'ke': 8.0, 'nu': 9.0, 'ti': 10.0}",,4-5-8,3,14.0,add,14.0,14.0,False,inf,idk,bad,bad,False
31123,63cd939b58c4334a66b053c9,run1,generalization,,205,,,,205,63cc988c2a276a3b63c222e6,63cd90bb574360aaf178d455,$1.51,1.51,,,15.0,5.0,nu-ho,ko,False,,"{'1674416866626': 'blurred', '1674416869230': 'focused', '1674416872054': 'blurred', '1674416873814': 'focused', '1674416920462': 'blurred', '1674416925542': 'focused', '1674416944927': 'blurred', '1674416945952': 'focused', '1674416971032': 'blurred', '1674416972132': 'focused'}",1674416857864.0,,,,1.893,0.655,1674416471066.0,1674417051118.0,,,,,,add,,2,no_syntax,,,,,,,,,False,True,False,False,False,False,True,False,False,False,True,,,,,,1,"{'ho-ti': 1.0, 'sa-ho': 2.0, 'ho-ke': 3.0, 'sa': 4.0, 'ho': 5.0, 'ho-nu': 6.0, 'ho-sa': 7.0, 'ke': 8.0, 'nu': 9.0, 'ti': 10.0}",,9-5,2,15.0,add,15.0,15.0,False,inf,idk,bad,bad,False
31124,63cd939b58c4334a66b053c9,run1,generalization,,205,,,,205,63cc988c2a276a3b63c222e6,63cd90bb574360aaf178d455,$1.51,1.51,,,16.0,5.0,nu-ho-ti,na,False,,"{'1674416866626': 'blurred', '1674416869230': 'focused', '1674416872054': 'blurred', '1674416873814': 'focused', '1674416920462': 'blurred', '1674416925542': 'focused', '1674416944927': 'blurred', '1674416945952': 'focused', '1674416971032': 'blurred', '1674416972132': 'focused'}",1674416857864.0,,,,1.834,5.549,1674416471066.0,1674417051118.0,,,,,,add,,2,no_syntax,,,,,,,,,False,True,False,False,False,False,True,False,False,False,True,,,,,,1,"{'ho-ti': 1.0, 'sa-ho': 2.0, 'ho-ke': 3.0, 'sa': 4.0, 'ho': 5.0, 'ho-nu': 6.0, 'ho-sa': 7.0, 'ke': 8.0, 'nu': 9.0, 'ti': 10.0}",,9-5-10,3,16.0,add,16.0,16.0,False,inf,idk,bad,bad,False
31125,63cd939b58c4334a66b053c9,run1,generalization,,205,,,,205,63cc988c2a276a3b63c222e6,63cd90bb574360aaf178d455,$1.51,1.51,,,17.0,5.0,nu-ho-sa,su,False,,"{'1674416866626': 'blurred', '1674416869230': 'focused', '1674416872054': 'blurred', '1674416873814': 'focused', '1674416920462': 'blurred', '1674416925542': 'focused', '1674416944927': 'blurred', '1674416945952': 'focused', '1674416971032': 'blurred', '1674416972132': 'focused'}",1674416857864.0,,,,2.932,0.858,1674416471066.0,1674417051118.0,,,,,,add,,2,no_syntax,,,,,,,,,False,True,False,False,False,False,True,False,False,False,True,,,,,,1,"{'ho-ti': 1.0, 'sa-ho': 2.0, 'ho-ke': 3.0, 'sa': 4.0, 'ho': 5.0, 'ho-nu': 6.0, 'ho-sa': 7.0, 'ke': 8.0, 'nu': 9.0, 'ti': 10.0}",,9-5-4,3,17.0,add,17.0,17.0,False,inf,idk,bad,bad,False
31126,63cd939b58c4334a66b053c9,run1,generalization,,205,,,,205,63cc988c2a276a3b63c222e6,63cd90bb574360aaf178d455,$1.51,1.51,,,18.0,5.0,nu-ho-nu,kosa,False,,"{'1674416866626': 'blurred', '1674416869230': 'focused', '1674416872054': 'blurred', '1674416873814': 'focused', '1674416920462': 'blurred', '1674416925542': 'focused', '1674416944927': 'blurred', '1674416945952': 'focused', '1674416971032': 'blurred', '1674416972132': 'focused'}",1674416857864.0,,,,1.584,1.168,1674416471066.0,1674417051118.0,,,,,,add,,2,no_syntax,,,,,,,,,False,True,False,False,False,False,True,False,False,False,True,,,,,,1,"{'ho-ti': 1.0, 'sa-ho': 2.0, 'ho-ke': 3.0, 'sa': 4.0, 'ho': 5.0, 'ho-nu': 6.0, 'ho-sa': 7.0, 'ke': 8.0, 'nu': 9.0, 'ti': 10.0}",4,9-5-9,3,14.0,add,14.0,14.0,False,inf,idk,bad,bad,False
31127,63cd939b58c4334a66b053c9,run1,generalization,,205,,,,205,63cc988c2a276a3b63c222e6,63cd90bb574360aaf178d455,$1.51,1.51,,,19.0,5.0,nu-ho-ke,pi,False,,"{'1674416866626': 'blurred', '1674416869230': 'focused', '1674416872054': 'blurred', '1674416873814': 'focused', '1674416920462': 'blurred', '1674416925542': 'focused', '1674416944927': 'blurred', '1674416945952': 'focused', '1674416971032': 'blurred', '1674416972132': 'focused'}",1674416857864.0,,,,1.705,1.544,1674416471066.0,1674417051118.0,,,,,,add,,2,no_syntax,,,,,,,,,False,True,False,False,False,False,True,False,False,False,True,,,,,,1,"{'ho-ti': 1.0, 'sa-ho': 2.0, 'ho-ke': 3.0, 'sa': 4.0, 'ho': 5.0, 'ho-nu': 6.0, 'ho-sa': 7.0, 'ke': 8.0, 'nu': 9.0, 'ti': 10.0}",,9-5-8,3,19.0,add,19.0,19.0,False,inf,idk,bad,bad,False
31128,63cd939b58c4334a66b053c9,run1,generalization,,205,,,,205,63cc988c2a276a3b63c222e6,63cd90bb574360aaf178d455,$1.51,1.51,,,20.0,5.0,ke-ho,ka,False,,"{'1674416866626': 'blurred', '1674416869230': 'focused', '1674416872054': 'blurred', '1674416873814': 'focused', '1674416920462': 'blurred', '1674416925542': 'focused', '1674416944927': 'blurred', '1674416945952': 'focused', '1674416971032': 'blurred', '1674416972132': 'focused'}",1674416857864.0,,,,2.245,2.35,1674416471066.0,1674417051118.0,,,,,,add,,2,no_syntax,,,,,,,,,False,True,False,False,False,False,True,False,False,False,True,,,,,,1,"{'ho-ti': 1.0, 'sa-ho': 2.0, 'ho-ke': 3.0, 'sa': 4.0, 'ho': 5.0, 'ho-nu': 6.0, 'ho-sa': 7.0, 'ke': 8.0, 'nu': 9.0, 'ti': 10.0}",,8-5,2,20.0,add,20.0,20.0,False,inf,idk,bad,bad,False
31139,63cd93db58c4334a66b05476,run1,generalization,,210,,,,210,63cc988c2a276a3b63c222e6,63cd90bc2e4b038c93a054a4,$2.02,2.02,,,11.0,5.0,ku-te-so,kuteso,True,,{},1674416807680.0,,,,48.477,,1674416511198.0,1674417115855.0,,,,,,mul,,2,control,,,,,,,,,True,True,False,False,False,False,False,False,False,False,True,,,,,,1,"{'so': 1.0, 'ku': 2.0, 'hi': 3.0, 'na': 4.0, 'te': 5.0}",2-5-1,2-5-1,3,0.0,mul,3.0,0.0,False,0.0,add,mul,mul,True
31140,63cd93db58c4334a66b05476,run1,generalization,,210,,,,210,63cc988c2a276a3b63c222e6,63cd90bc2e4b038c93a054a4,$2.02,2.02,,,12.0,5.0,ku-te-ku,kuteku,True,,{},1674416807680.0,,,,1.601,6.024,1674416511198.0,1674417115855.0,,,,,,mul,,2,control,,,,,,,,,True,True,False,False,False,False,False,False,False,False,True,,,,,,1,"{'so': 1.0, 'ku': 2.0, 'hi': 3.0, 'na': 4.0, 'te': 5.0}",2-5-2,2-5-2,3,0.0,mul,3.0,0.0,False,0.0,add,mul,mul,True
31141,63cd93db58c4334a66b05476,run1,generalization,,210,,,,210,63cc988c2a276a3b63c222e6,63cd90bc2e4b038c93a054a4,$2.02,2.02,,,13.0,5.0,ku-te-hi,kutehi,True,,{},1674416807680.0,,,,1.513,4.474,1674416511198.0,1674417115855.0,,,,,,mul,,2,control,,,,,,,,,True,True,False,False,False,False,False,False,False,False,True,,,,,,1,"{'so': 1.0, 'ku': 2.0, 'hi': 3.0, 'na': 4.0, 'te': 5.0}",2-5-3,2-5-3,3,0.0,mul,3.0,0.0,False,0.0,add,mul,mul,True
31142,63cd93db58c4334a66b05476,run1,generalization,,210,,,,210,63cc988c2a276a3b63c222e6,63cd90bc2e4b038c93a054a4,$2.02,2.02,,,14.0,5.0,ku-te-na,kutena,True,,{},1674416807680.0,,,,0.901,3.912,1674416511198.0,1674417115855.0,,,,,,mul,,2,control,,,,,,,,,True,True,False,False,False,False,False,False,False,False,True,,,,,,1,"{'so': 1.0, 'ku': 2.0, 'hi': 3.0, 'na': 4.0, 'te': 5.0}",2-5-4,2-5-4,3,0.0,mul,3.0,0.0,False,0.0,add,mul,mul,True
31143,63cd93db58c4334a66b05476,run1,generalization,,210,,,,210,63cc988c2a276a3b63c222e6,63cd90bc2e4b038c93a054a4,$2.02,2.02,,,15.0,5.0,hi-te,hite,True,,{},1674416807680.0,,,,30.214,3.449,1674416511198.0,1674417115855.0,,,,,,mul,,2,control,,,,,,,,,True,True,False,False,False,False,False,False,False,False,True,,,,,,1,"{'so': 1.0, 'ku': 2.0, 'hi': 3.0, 'na': 4.0, 'te': 5.0}",3-5,3-5,2,0.0,mul,7.0,0.0,False,inf,idk,mul,mul,True
31144,63cd93db58c4334a66b05476,run1,generalization,,210,,,,210,63cc988c2a276a3b63c222e6,63cd90bc2e4b038c93a054a4,$2.02,2.02,,,16.0,5.0,hi-te-so,nana,False,,{},1674416807680.0,,,,32.176,5.036,1674416511198.0,1674417115855.0,,,,,,mul,,2,control,,,,,,,,,True,True,False,False,False,False,False,False,False,False,True,,,,,,1,"{'so': 1.0, 'ku': 2.0, 'hi': 3.0, 'na': 4.0, 'te': 5.0}",4-4,3-5-1,3,8.0,mul,8.0,8.0,False,inf,idk,bad,bad,False
31145,63cd93db58c4334a66b05476,run1,generalization,,210,,,,210,63cc988c2a276a3b63c222e6,63cd90bc2e4b038c93a054a4,$2.02,2.02,,,17.0,5.0,hi-te-ku,hiteku,True,,{},1674416807680.0,,,,12.74,6.636,1674416511198.0,1674417115855.0,,,,,,mul,,2,control,,,,,,,,,True,True,False,False,False,False,False,False,False,False,True,,,,,,1,"{'so': 1.0, 'ku': 2.0, 'hi': 3.0, 'na': 4.0, 'te': 5.0}",3-5-2,3-5-2,3,0.0,mul,7.0,0.0,False,inf,idk,mul,mul,True
31146,63cd93db58c4334a66b05476,run1,generalization,,210,,,,210,63cc988c2a276a3b63c222e6,63cd90bc2e4b038c93a054a4,$2.02,2.02,,,18.0,5.0,hi-te-hi,hitehi,True,,{},1674416807680.0,,,,3.788,,1674416511198.0,1674417115855.0,,,,,,mul,,2,control,,,,,,,,,True,True,False,False,False,False,False,False,False,False,True,,,,,,1,"{'so': 1.0, 'ku': 2.0, 'hi': 3.0, 'na': 4.0, 'te': 5.0}",3-5-3,3-5-3,3,0.0,mul,7.0,0.0,False,0.0,add,mul,mul,True
31147,63cd93db58c4334a66b05476,run1,generalization,,210,,,,210,63cc988c2a276a3b63c222e6,63cd90bc2e4b038c93a054a4,$2.02,2.02,,,19.0,5.0,hi-te-na,hitena,True,,{},1674416807680.0,,,,2.676,,1674416511198.0,1674417115855.0,,,,,,mul,,2,control,,,,,,,,,True,True,False,False,False,False,False,False,False,False,True,,,,,,1,"{'so': 1.0, 'ku': 2.0, 'hi': 3.0, 'na': 4.0, 'te': 5.0}",3-5-4,3-5-4,3,0.0,mul,7.0,0.0,False,0.0,add,mul,mul,True
31148,63cd93db58c4334a66b05476,run1,generalization,,210,,,,210,63cc988c2a276a3b63c222e6,63cd90bc2e4b038c93a054a4,$2.02,2.02,,,20.0,5.0,na-te,nate,True,,{},1674416807680.0,,,,25.064,3.211,1674416511198.0,1674417115855.0,,,,,,mul,,2,control,,,,,,,,,True,True,False,False,False,False,False,False,False,False,True,,,,,,1,"{'so': 1.0, 'ku': 2.0, 'hi': 3.0, 'na': 4.0, 'te': 5.0}",4-5,4-5,2,0.0,mul,11.0,0.0,False,inf,idk,mul,mul,True
31159,63cd940c58c4334a66b05509,run1,generalization,,213,,,,213,63cc988c2a276a3b63c222e6,63cd90bdfec356cac6a7ae7a,$1.92,1.92,,,11.0,5.0,nu-sa-ti,keke,False,,{},1674416851276.0,,,,3.637,,1674416501730.0,1674417165031.0,,,,,,mul,,2,no_syntax,,,,,,,,,False,True,False,False,False,False,False,False,False,False,True,,,,,,1,"{'ke': 1.0, 'nu-sa': 2.0, 'nu': 3.0, 'ti': 4.0, 'sa-ho': 5.0, 'sa-nu': 6.0, 'sa-ti': 7.0, 'ho': 8.0, 'sa': 9.0, 'sa-ke': 10.0}",1,3-9-4,3,10.0,mul,10.0,10.0,False,inf,idk,bad,bad,False
31160,63cd940c58c4334a66b05509,run1,generalization,,213,,,,213,63cc988c2a276a3b63c222e6,63cd90bdfec356cac6a7ae7a,$1.92,1.92,,,12.0,5.0,nu-sa-nu,kenusa,False,,{},1674416851276.0,,,,22.673,9.449,1674416501730.0,1674417165031.0,,,,,,add,,2,no_syntax,,,,,,,,,False,True,False,False,False,False,False,False,False,False,True,,,,,,1,"{'ke': 1.0, 'nu-sa': 2.0, 'nu': 3.0, 'ti': 4.0, 'sa-ho': 5.0, 'sa-nu': 6.0, 'sa-ti': 7.0, 'ho': 8.0, 'sa': 9.0, 'sa-ke': 10.0}",1-3-9,3-9-3,3,1.0,add,1.0,16.0,False,inf,idk,bad,bad,False
31161,63cd940c58c4334a66b05509,run1,generalization,,213,,,,213,63cc988c2a276a3b63c222e6,63cd90bdfec356cac6a7ae7a,$1.92,1.92,,,13.0,5.0,nu-sa-ke,kenu,False,,{},1674416851276.0,,,,2.483,,1674416501730.0,1674417165031.0,,,,,,add,,2,no_syntax,,,,,,,,,False,True,False,False,False,False,False,False,False,False,True,,,,,,1,"{'ke': 1.0, 'nu-sa': 2.0, 'nu': 3.0, 'ti': 4.0, 'sa-ho': 5.0, 'sa-nu': 6.0, 'sa-ti': 7.0, 'ho': 8.0, 'sa': 9.0, 'sa-ke': 10.0}",1-3,3-9-1,3,9.0,add,9.0,10.0,False,inf,idk,bad,bad,False
31162,63cd940c58c4334a66b05509,run1,generalization,,213,,,,213,63cc988c2a276a3b63c222e6,63cd90bdfec356cac6a7ae7a,$1.92,1.92,,,14.0,5.0,nu-sa-ho,keti,True,,{},1674416851276.0,,,,2.44,9.387,1674416501730.0,1674417165031.0,,,,,,add_sf,,2,no_syntax,,,,,,,,,False,True,False,False,False,False,False,False,False,False,True,,,,,,1,"{'ke': 1.0, 'nu-sa': 2.0, 'nu': 3.0, 'ti': 4.0, 'sa-ho': 5.0, 'sa-nu': 6.0, 'sa-ti': 7.0, 'ho': 8.0, 'sa': 9.0, 'sa-ke': 10.0}",1-4,3-9-8,3,0.0,add,9.0,10.0,True,0.0,add,add,add_sf,False
31163,63cd940c58c4334a66b05509,run1,generalization,,213,,,,213,63cc988c2a276a3b63c222e6,63cd90bdfec356cac6a7ae7a,$1.92,1.92,,,15.0,5.0,ke-sa,kesaho,False,,{},1674416851276.0,,,,0.982,4.32,1674416501730.0,1674417165031.0,,,,,,mul,,2,no_syntax,,,,,,,,,False,True,False,False,False,False,False,False,False,False,True,,,,,,1,"{'ke': 1.0, 'nu-sa': 2.0, 'nu': 3.0, 'ti': 4.0, 'sa-ho': 5.0, 'sa-nu': 6.0, 'sa-ti': 7.0, 'ho': 8.0, 'sa': 9.0, 'sa-ke': 10.0}",1-9-8,1-9,2,2.0,mul,3.0,2.0,False,inf,idk,bad,bad,False
31164,63cd940c58c4334a66b05509,run1,generalization,,213,,,,213,63cc988c2a276a3b63c222e6,63cd90bdfec356cac6a7ae7a,$1.92,1.92,,,16.0,5.0,ke-sa-ti,kesanu,False,,{},1674416851276.0,,,,2.651,6.347,1674416501730.0,1674417165031.0,,,,,,add,,2,no_syntax,,,,,,,,,False,True,False,False,False,False,False,False,False,False,True,,,,,,1,"{'ke': 1.0, 'nu-sa': 2.0, 'nu': 3.0, 'ti': 4.0, 'sa-ho': 5.0, 'sa-nu': 6.0, 'sa-ti': 7.0, 'ho': 8.0, 'sa': 9.0, 'sa-ke': 10.0}",1-9-3,1-9-4,3,3.0,add,3.0,4.0,False,inf,idk,bad,bad,False
31165,63cd940c58c4334a66b05509,run1,generalization,,213,,,,213,63cc988c2a276a3b63c222e6,63cd90bdfec356cac6a7ae7a,$1.92,1.92,,,17.0,5.0,ke-sa-nu,kesati,True,,{},1674416851276.0,,,,2.064,4.685,1674416501730.0,1674417165031.0,,,,,,add_sf,,2,no_syntax,,,,,,,,,False,True,False,False,False,False,False,False,False,False,True,,,,,,1,"{'ke': 1.0, 'nu-sa': 2.0, 'nu': 3.0, 'ti': 4.0, 'sa-ho': 5.0, 'sa-nu': 6.0, 'sa-ti': 7.0, 'ho': 8.0, 'sa': 9.0, 'sa-ke': 10.0}",1-9-4,1-9-3,3,0.0,add,3.0,4.0,True,0.0,add,add,add_sf,False
31166,63cd940c58c4334a66b05509,run1,generalization,,213,,,,213,63cc988c2a276a3b63c222e6,63cd90bdfec356cac6a7ae7a,$1.92,1.92,,,18.0,5.0,ke-sa-ke,keho,False,,{},1674416851276.0,,,,2.168,4.894,1674416501730.0,1674417165031.0,,,,,,add,,2,no_syntax,,,,,,,,,False,True,False,False,False,False,False,False,False,False,True,,,,,,1,"{'ke': 1.0, 'nu-sa': 2.0, 'nu': 3.0, 'ti': 4.0, 'sa-ho': 5.0, 'sa-nu': 6.0, 'sa-ti': 7.0, 'ho': 8.0, 'sa': 9.0, 'sa-ke': 10.0}",1-8,1-9-1,3,9.0,add,9.0,10.0,False,inf,idk,bad,bad,False
31167,63cd940c58c4334a66b05509,run1,generalization,,213,,,,213,63cc988c2a276a3b63c222e6,63cd90bdfec356cac6a7ae7a,$1.92,1.92,,,19.0,5.0,ke-sa-ho,kesa,True,,{},1674416851276.0,,,,0.856,3.042,1674416501730.0,1674417165031.0,,,,,,add_sf,,2,no_syntax,,,,,,,,,False,True,False,False,False,False,False,False,False,False,True,,,,,,1,"{'ke': 1.0, 'nu-sa': 2.0, 'nu': 3.0, 'ti': 4.0, 'sa-ho': 5.0, 'sa-nu': 6.0, 'sa-ti': 7.0, 'ho': 8.0, 'sa': 9.0, 'sa-ke': 10.0}",1-9,1-9-8,3,0.0,add,9.0,10.0,True,0.0,add,add,add_sf,False
31168,63cd940c58c4334a66b05509,run1,generalization,,213,,,,213,63cc988c2a276a3b63c222e6,63cd90bdfec356cac6a7ae7a,$1.92,1.92,,,20.0,5.0,ho-sa,kesake,True,,{},1674416851276.0,,,,41.584,,1674416501730.0,1674417165031.0,,,,,,add_sf,,2,no_syntax,,,,,,,,,False,True,False,False,False,False,False,False,False,False,True,,,,,,1,"{'ke': 1.0, 'nu-sa': 2.0, 'nu': 3.0, 'ti': 4.0, 'sa-ho': 5.0, 'sa-nu': 6.0, 'sa-ti': 7.0, 'ho': 8.0, 'sa': 9.0, 'sa-ke': 10.0}",1-10,8-9,2,0.0,add,9.0,10.0,True,0.0,add,add,add_sf,False
31179,63cd941c58c4334a66b05544,run1,generalization,,200,,,,200,63cc988c2a276a3b63c222e6,63cd90c2a458c0073ab23311,$1.77,1.77,,,11.0,5.0,ta-hu-so,nehune,True,,"{'1674416984578': 'blurred', '1674416984579': 'focused', '1674416985905': 'blurred', '1674416985906': 'focused', '1674417023969': 'blurred', '1674417023970': 'focused', '1674417033329': 'blurred', '1674417033330': 'focused', '1674417034161': 'blurred', '1674417034162': 'focused', '1674417043977': 'blurred', '1674417043978': 'focused', '1674417044593': 'blurred', '1674417044594': 'focused', '1674417132977': 'blurred', '1674417132978': 'focused', '1674417139913': 'blurred', '1674417139914': 'focused', '1674417171457': 'blurred', '1674417171458': 'focused', '1674417172097': 'blurred', '1674417172098': 'focused', '1674417173897': 'blurred', '1674417173898': 'focused', '1674417175953': 'blurred', '1674417175954': 'focused', '1674417176457': 'focused', '1674417177513': 'blurred', '1674417177514': 'focused', '1674417178681': 'blurred', '1674417178682': 'focused', '1674417180017': 'blurred', '1674417180018': 'focused'}",1674416974498.0,,,,,2.696,1674416412505.0,1674417180873.0,,,,,,add,,2,no_count,,,,,,,,,True,False,False,False,False,False,True,False,False,False,True,,,,,,1,"{'so': 1.0, 'ki': 4.0, 'ne': 3.0, 'ta': 2.0, 'hu': 5.0}",3-5-3,2-5-1,3,0.0,add,0.0,7.0,False,inf,idk,add,add,False
31180,63cd941c58c4334a66b05544,run1,generalization,,200,,,,200,63cc988c2a276a3b63c222e6,63cd90c2a458c0073ab23311,$1.77,1.77,,,12.0,5.0,ta-hu-ta,tahuso,False,,"{'1674416984578': 'blurred', '1674416984579': 'focused', '1674416985905': 'blurred', '1674416985906': 'focused', '1674417023969': 'blurred', '1674417023970': 'focused', '1674417033329': 'blurred', '1674417033330': 'focused', '1674417034161': 'blurred', '1674417034162': 'focused', '1674417043977': 'blurred', '1674417043978': 'focused', '1674417044593': 'blurred', '1674417044594': 'focused', '1674417132977': 'blurred', '1674417132978': 'focused', '1674417139913': 'blurred', '1674417139914': 'focused', '1674417171457': 'blurred', '1674417171458': 'focused', '1674417172097': 'blurred', '1674417172098': 'focused', '1674417173897': 'blurred', '1674417173898': 'focused', '1674417175953': 'blurred', '1674417175954': 'focused', '1674417176457': 'focused', '1674417177513': 'blurred', '1674417177514': 'focused', '1674417178681': 'blurred', '1674417178682': 'focused', '1674417180017': 'blurred', '1674417180018': 'focused'}",1674416974498.0,,,,2.759,4.168,1674416412505.0,1674417180873.0,,,,,,mul,,2,no_count,,,,,,,,,True,False,False,False,False,False,True,False,False,False,True,,,,,,1,"{'so': 1.0, 'ki': 4.0, 'ne': 3.0, 'ta': 2.0, 'hu': 5.0}",2-5-1,2-5-2,3,1.0,mul,4.0,1.0,False,inf,idk,bad,bad,False
31181,63cd941c58c4334a66b05544,run1,generalization,,200,,,,200,63cc988c2a276a3b63c222e6,63cd90c2a458c0073ab23311,$1.77,1.77,,,13.0,5.0,ta-hu-ne,hutana,False,,"{'1674416984578': 'blurred', '1674416984579': 'focused', '1674416985905': 'blurred', '1674416985906': 'focused', '1674417023969': 'blurred', '1674417023970': 'focused', '1674417033329': 'blurred', '1674417033330': 'focused', '1674417034161': 'blurred', '1674417034162': 'focused', '1674417043977': 'blurred', '1674417043978': 'focused', '1674417044593': 'blurred', '1674417044594': 'focused', '1674417132977': 'blurred', '1674417132978': 'focused', '1674417139913': 'blurred', '1674417139914': 'focused', '1674417171457': 'blurred', '1674417171458': 'focused', '1674417172097': 'blurred', '1674417172098': 'focused', '1674417173897': 'blurred', '1674417173898': 'focused', '1674417175953': 'blurred', '1674417175954': 'focused', '1674417176457': 'focused', '1674417177513': 'blurred', '1674417177514': 'focused', '1674417178681': 'blurred', '1674417178682': 'focused', '1674417180017': 'blurred', '1674417180018': 'focused'}",1674416974498.0,,,,3.737,1.559,1674416412505.0,1674417180873.0,,,,,,mul,,2,no_count,,,,,,,,,True,False,False,False,False,False,True,False,False,False,True,,,,,,1,"{'so': 1.0, 'ki': 4.0, 'ne': 3.0, 'ta': 2.0, 'hu': 5.0}",5-2-na,2-5-3,3,6.0,mul,6.0,6.0,False,inf,idk,bad,bad,False
31182,63cd941c58c4334a66b05544,run1,generalization,,200,,,,200,63cc988c2a276a3b63c222e6,63cd90c2a458c0073ab23311,$1.77,1.77,,,14.0,5.0,ta-hu-ki,tahuta,False,,"{'1674416984578': 'blurred', '1674416984579': 'focused', '1674416985905': 'blurred', '1674416985906': 'focused', '1674417023969': 'blurred', '1674417023970': 'focused', '1674417033329': 'blurred', '1674417033330': 'focused', '1674417034161': 'blurred', '1674417034162': 'focused', '1674417043977': 'blurred', '1674417043978': 'focused', '1674417044593': 'blurred', '1674417044594': 'focused', '1674417132977': 'blurred', '1674417132978': 'focused', '1674417139913': 'blurred', '1674417139914': 'focused', '1674417171457': 'blurred', '1674417171458': 'focused', '1674417172097': 'blurred', '1674417172098': 'focused', '1674417173897': 'blurred', '1674417173898': 'focused', '1674417175953': 'blurred', '1674417175954': 'focused', '1674417176457': 'focused', '1674417177513': 'blurred', '1674417177514': 'focused', '1674417178681': 'blurred', '1674417178682': 'focused', '1674417180017': 'blurred', '1674417180018': 'focused'}",1674416974498.0,,,,5.096,2.92,1674416412505.0,1674417180873.0,,,,,,mul,,2,no_count,,,,,,,,,True,False,False,False,False,False,True,False,False,False,True,,,,,,1,"{'so': 1.0, 'ki': 4.0, 'ne': 3.0, 'ta': 2.0, 'hu': 5.0}",2-5-2,2-5-4,3,2.0,mul,5.0,2.0,False,inf,idk,bad,bad,False
31183,63cd941c58c4334a66b05544,run1,generalization,,200,,,,200,63cc988c2a276a3b63c222e6,63cd90c2a458c0073ab23311,$1.77,1.77,,,15.0,5.0,ne-hu,husohuki,True,,"{'1674416984578': 'blurred', '1674416984579': 'focused', '1674416985905': 'blurred', '1674416985906': 'focused', '1674417023969': 'blurred', '1674417023970': 'focused', '1674417033329': 'blurred', '1674417033330': 'focused', '1674417034161': 'blurred', '1674417034162': 'focused', '1674417043977': 'blurred', '1674417043978': 'focused', '1674417044593': 'blurred', '1674417044594': 'focused', '1674417132977': 'blurred', '1674417132978': 'focused', '1674417139913': 'blurred', '1674417139914': 'focused', '1674417171457': 'blurred', '1674417171458': 'focused', '1674417172097': 'blurred', '1674417172098': 'focused', '1674417173897': 'blurred', '1674417173898': 'focused', '1674417175953': 'blurred', '1674417175954': 'focused', '1674417176457': 'focused', '1674417177513': 'blurred', '1674417177514': 'focused', '1674417178681': 'blurred', '1674417178682': 'focused', '1674417180017': 'blurred', '1674417180018': 'focused'}",1674416974498.0,,,,4.88,,1674416412505.0,1674417180873.0,,,,,,add,,2,no_count,,,,,,,,,True,False,False,False,False,False,True,False,False,False,True,,,,,,1,"{'so': 1.0, 'ki': 4.0, 'ne': 3.0, 'ta': 2.0, 'hu': 5.0}",5-1-5-4,3-5,2,0.0,add,0.0,1.0,False,inf,idk,add,add,False
31184,63cd941c58c4334a66b05544,run1,generalization,,200,,,,200,63cc988c2a276a3b63c222e6,63cd90c2a458c0073ab23311,$1.77,1.77,,,16.0,5.0,ne-hu-so,fasdjk,False,,"{'1674416984578': 'blurred', '1674416984579': 'focused', '1674416985905': 'blurred', '1674416985906': 'focused', '1674417023969': 'blurred', '1674417023970': 'focused', '1674417033329': 'blurred', '1674417033330': 'focused', '1674417034161': 'blurred', '1674417034162': 'focused', '1674417043977': 'blurred', '1674417043978': 'focused', '1674417044593': 'blurred', '1674417044594': 'focused', '1674417132977': 'blurred', '1674417132978': 'focused', '1674417139913': 'blurred', '1674417139914': 'focused', '1674417171457': 'blurred', '1674417171458': 'focused', '1674417172097': 'blurred', '1674417172098': 'focused', '1674417173897': 'blurred', '1674417173898': 'focused', '1674417175953': 'blurred', '1674417175954': 'focused', '1674417176457': 'focused', '1674417177513': 'blurred', '1674417177514': 'focused', '1674417178681': 'blurred', '1674417178682': 'focused', '1674417180017': 'blurred', '1674417180018': 'focused'}",1674416974498.0,,,,1.024,0.672,1674416412505.0,1674417180873.0,,,,,,mul,,2,no_count,,,,,,,,,True,False,False,False,False,False,True,False,False,False,True,,,,,,1,"{'so': 1.0, 'ki': 4.0, 'ne': 3.0, 'ta': 2.0, 'hu': 5.0}",fasdjk,3-5-1,3,16.0,mul,16.0,16.0,False,inf,idk,bad,bad,False
31185,63cd941c58c4334a66b05544,run1,generalization,,200,,,,200,63cc988c2a276a3b63c222e6,63cd90c2a458c0073ab23311,$1.77,1.77,,,17.0,5.0,ne-hu-ta,ka,False,,"{'1674416984578': 'blurred', '1674416984579': 'focused', '1674416985905': 'blurred', '1674416985906': 'focused', '1674417023969': 'blurred', '1674417023970': 'focused', '1674417033329': 'blurred', '1674417033330': 'focused', '1674417034161': 'blurred', '1674417034162': 'focused', '1674417043977': 'blurred', '1674417043978': 'focused', '1674417044593': 'blurred', '1674417044594': 'focused', '1674417132977': 'blurred', '1674417132978': 'focused', '1674417139913': 'blurred', '1674417139914': 'focused', '1674417171457': 'blurred', '1674417171458': 'focused', '1674417172097': 'blurred', '1674417172098': 'focused', '1674417173897': 'blurred', '1674417173898': 'focused', '1674417175953': 'blurred', '1674417175954': 'focused', '1674417176457': 'focused', '1674417177513': 'blurred', '1674417177514': 'focused', '1674417178681': 'blurred', '1674417178682': 'focused', '1674417180017': 'blurred', '1674417180018': 'focused'}",1674416974498.0,,,,0.065,0.632,1674416412505.0,1674417180873.0,,,,,,mul,,2,no_count,,,,,,,,,True,False,False,False,False,False,True,False,False,False,True,,,,,,1,"{'so': 1.0, 'ki': 4.0, 'ne': 3.0, 'ta': 2.0, 'hu': 5.0}",ka,3-5-2,3,17.0,mul,17.0,17.0,False,inf,idk,bad,bad,False
31186,63cd941c58c4334a66b05544,run1,generalization,,200,,,,200,63cc988c2a276a3b63c222e6,63cd90c2a458c0073ab23311,$1.77,1.77,,,18.0,5.0,ne-hu-ne,klfa,False,,"{'1674416984578': 'blurred', '1674416984579': 'focused', '1674416985905': 'blurred', '1674416985906': 'focused', '1674417023969': 'blurred', '1674417023970': 'focused', '1674417033329': 'blurred', '1674417033330': 'focused', '1674417034161': 'blurred', '1674417034162': 'focused', '1674417043977': 'blurred', '1674417043978': 'focused', '1674417044593': 'blurred', '1674417044594': 'focused', '1674417132977': 'blurred', '1674417132978': 'focused', '1674417139913': 'blurred', '1674417139914': 'focused', '1674417171457': 'blurred', '1674417171458': 'focused', '1674417172097': 'blurred', '1674417172098': 'focused', '1674417173897': 'blurred', '1674417173898': 'focused', '1674417175953': 'blurred', '1674417175954': 'focused', '1674417176457': 'focused', '1674417177513': 'blurred', '1674417177514': 'focused', '1674417178681': 'blurred', '1674417178682': 'focused', '1674417180017': 'blurred', '1674417180018': 'focused'}",1674416974498.0,,,,0.408,0.56,1674416412505.0,1674417180873.0,,,,,,mul,,2,no_count,,,,,,,,,True,False,False,False,False,False,True,False,False,False,True,,,,,,1,"{'so': 1.0, 'ki': 4.0, 'ne': 3.0, 'ta': 2.0, 'hu': 5.0}",klfa,3-5-3,3,18.0,mul,18.0,18.0,False,inf,idk,bad,bad,False
31187,63cd941c58c4334a66b05544,run1,generalization,,200,,,,200,63cc988c2a276a3b63c222e6,63cd90c2a458c0073ab23311,$1.77,1.77,,,19.0,5.0,ne-hu-ki,kla,False,,"{'1674416984578': 'blurred', '1674416984579': 'focused', '1674416985905': 'blurred', '1674416985906': 'focused', '1674417023969': 'blurred', '1674417023970': 'focused', '1674417033329': 'blurred', '1674417033330': 'focused', '1674417034161': 'blurred', '1674417034162': 'focused', '1674417043977': 'blurred', '1674417043978': 'focused', '1674417044593': 'blurred', '1674417044594': 'focused', '1674417132977': 'blurred', '1674417132978': 'focused', '1674417139913': 'blurred', '1674417139914': 'focused', '1674417171457': 'blurred', '1674417171458': 'focused', '1674417172097': 'blurred', '1674417172098': 'focused', '1674417173897': 'blurred', '1674417173898': 'focused', '1674417175953': 'blurred', '1674417175954': 'focused', '1674417176457': 'focused', '1674417177513': 'blurred', '1674417177514': 'focused', '1674417178681': 'blurred', '1674417178682': 'focused', '1674417180017': 'blurred', '1674417180018': 'focused'}",1674416974498.0,,,,0.192,0.744,1674416412505.0,1674417180873.0,,,,,,mul,,2,no_count,,,,,,,,,True,False,False,False,False,False,True,False,False,False,True,,,,,,1,"{'so': 1.0, 'ki': 4.0, 'ne': 3.0, 'ta': 2.0, 'hu': 5.0}",kla,3-5-4,3,19.0,mul,19.0,19.0,False,inf,idk,bad,bad,False
31188,63cd941c58c4334a66b05544,run1,generalization,,200,,,,200,63cc988c2a276a3b63c222e6,63cd90c2a458c0073ab23311,$1.77,1.77,,,20.0,5.0,ki-hu,klfa,False,,"{'1674416984578': 'blurred', '1674416984579': 'focused', '1674416985905': 'blurred', '1674416985906': 'focused', '1674417023969': 'blurred', '1674417023970': 'focused', '1674417033329': 'blurred', '1674417033330': 'focused', '1674417034161': 'blurred', '1674417034162': 'focused', '1674417043977': 'blurred', '1674417043978': 'focused', '1674417044593': 'blurred', '1674417044594': 'focused', '1674417132977': 'blurred', '1674417132978': 'focused', '1674417139913': 'blurred', '1674417139914': 'focused', '1674417171457': 'blurred', '1674417171458': 'focused', '1674417172097': 'blurred', '1674417172098': 'focused', '1674417173897': 'blurred', '1674417173898': 'focused', '1674417175953': 'blurred', '1674417175954': 'focused', '1674417176457': 'focused', '1674417177513': 'blurred', '1674417177514': 'focused', '1674417178681': 'blurred', '1674417178682': 'focused', '1674417180017': 'blurred', '1674417180018': 'focused'}",1674416974498.0,,,,0.193,0.624,1674416412505.0,1674417180873.0,,,,,,mul,,2,no_count,,,,,,,,,True,False,False,False,False,False,True,False,False,False,True,,,,,,1,"{'so': 1.0, 'ki': 4.0, 'ne': 3.0, 'ta': 2.0, 'hu': 5.0}",klfa,4-5,2,20.0,mul,20.0,20.0,False,inf,idk,bad,bad,False
31199,63cd944458c4334a66b055ea,run1,generalization,,207,,,,207,63cc988c2a276a3b63c222e6,63cd90c2196ce7878f4ac0b7,$1.97,1.97,,,11.0,5.0,sa-ne-hi,sahi,False,,{},1674416961284.0,,,,19.011,1.256,1674416465311.0,1674417220445.0,,,,,,mul,,2,control,,,,,,,,,True,True,False,False,False,False,False,False,False,False,True,,,,,,1,"{'hi': 1.0, 'sa': 2.0, 'ko': 3.0, 'tu': 4.0, 'ne': 5.0}",2-1,2-5-1,3,8.0,mul,8.0,8.0,False,inf,idk,bad,bad,False
31200,63cd944458c4334a66b055ea,run1,generalization,,207,,,,207,63cc988c2a276a3b63c222e6,63cd90c2196ce7878f4ac0b7,$1.97,1.97,,,12.0,5.0,sa-ne-sa,satu,False,,{},1674416961284.0,,,,1.428,10.498,1674416465311.0,1674417220445.0,,,,,,mul,,2,control,,,,,,,,,True,True,False,False,False,False,False,False,False,False,True,,,,,,1,"{'hi': 1.0, 'sa': 2.0, 'ko': 3.0, 'tu': 4.0, 'ne': 5.0}",2-4,2-5-2,3,4.0,mul,6.0,4.0,False,inf,idk,bad,bad,False
31201,63cd944458c4334a66b055ea,run1,generalization,,207,,,,207,63cc988c2a276a3b63c222e6,63cd90c2196ce7878f4ac0b7,$1.97,1.97,,,13.0,5.0,sa-ne-ko,satu,False,,{},1674416961284.0,,,,1.743,,1674416465311.0,1674417220445.0,,,,,,mul,,2,control,,,,,,,,,True,True,False,False,False,False,False,False,False,False,True,,,,,,1,"{'hi': 1.0, 'sa': 2.0, 'ko': 3.0, 'tu': 4.0, 'ne': 5.0}",2-4,2-5-3,3,5.0,mul,7.0,5.0,False,inf,idk,bad,bad,False
31202,63cd944458c4334a66b055ea,run1,generalization,,207,,,,207,63cc988c2a276a3b63c222e6,63cd90c2196ce7878f4ac0b7,$1.97,1.97,,,14.0,5.0,sa-ne-tu,satu,False,,{},1674416961284.0,,,,2.485,,1674416465311.0,1674417220445.0,,,,,,mul,,2,control,,,,,,,,,True,True,False,False,False,False,False,False,False,False,True,,,,,,1,"{'hi': 1.0, 'sa': 2.0, 'ko': 3.0, 'tu': 4.0, 'ne': 5.0}",2-4,2-5-4,3,6.0,mul,8.0,6.0,False,inf,idk,bad,bad,False
31203,63cd944458c4334a66b055ea,run1,generalization,,207,,,,207,63cc988c2a276a3b63c222e6,63cd90c2196ce7878f4ac0b7,$1.97,1.97,,,15.0,5.0,ko-ne,satu,False,,{},1674416961284.0,,,,1.365,1.261,1674416465311.0,1674417220445.0,,,,,,mul,,2,control,,,,,,,,,True,True,False,False,False,False,False,False,False,False,True,,,,,,1,"{'hi': 1.0, 'sa': 2.0, 'ko': 3.0, 'tu': 4.0, 'ne': 5.0}",2-4,3-5,2,7.0,mul,9.0,7.0,False,inf,idk,bad,bad,False
31204,63cd944458c4334a66b055ea,run1,generalization,,207,,,,207,63cc988c2a276a3b63c222e6,63cd90c2196ce7878f4ac0b7,$1.97,1.97,,,16.0,5.0,ko-ne-hi,satu,False,,{},1674416961284.0,,,,1.447,2.095,1674416465311.0,1674417220445.0,,,,,,mul,,2,control,,,,,,,,,True,True,False,False,False,False,False,False,False,False,True,,,,,,1,"{'hi': 1.0, 'sa': 2.0, 'ko': 3.0, 'tu': 4.0, 'ne': 5.0}",2-4,3-5-1,3,8.0,mul,10.0,8.0,False,inf,idk,bad,bad,False
31205,63cd944458c4334a66b055ea,run1,generalization,,207,,,,207,63cc988c2a276a3b63c222e6,63cd90c2196ce7878f4ac0b7,$1.97,1.97,,,17.0,5.0,ko-ne-sa,satu,False,,{},1674416961284.0,,,,1.11,1.132,1674416465311.0,1674417220445.0,,,,,,mul,,2,control,,,,,,,,,True,True,False,False,False,False,False,False,False,False,True,,,,,,1,"{'hi': 1.0, 'sa': 2.0, 'ko': 3.0, 'tu': 4.0, 'ne': 5.0}",2-4,3-5-2,3,9.0,mul,11.0,9.0,False,inf,idk,bad,bad,False
31206,63cd944458c4334a66b055ea,run1,generalization,,207,,,,207,63cc988c2a276a3b63c222e6,63cd90c2196ce7878f4ac0b7,$1.97,1.97,,,18.0,5.0,ko-ne-ko,satu,False,,{},1674416961284.0,,,,0.982,1.141,1674416465311.0,1674417220445.0,,,,,,mul,,2,control,,,,,,,,,True,True,False,False,False,False,False,False,False,False,True,,,,,,1,"{'hi': 1.0, 'sa': 2.0, 'ko': 3.0, 'tu': 4.0, 'ne': 5.0}",2-4,3-5-3,3,10.0,mul,12.0,10.0,False,inf,idk,bad,bad,False
31207,63cd944458c4334a66b055ea,run1,generalization,,207,,,,207,63cc988c2a276a3b63c222e6,63cd90c2196ce7878f4ac0b7,$1.97,1.97,,,19.0,5.0,ko-ne-tu,satu,False,,{},1674416961284.0,,,,0.69,1.744,1674416465311.0,1674417220445.0,,,,,,mul,,2,control,,,,,,,,,True,True,False,False,False,False,False,False,False,False,True,,,,,,1,"{'hi': 1.0, 'sa': 2.0, 'ko': 3.0, 'tu': 4.0, 'ne': 5.0}",2-4,3-5-4,3,11.0,mul,13.0,11.0,False,inf,idk,bad,bad,False
31208,63cd944458c4334a66b055ea,run1,generalization,,207,,,,207,63cc988c2a276a3b63c222e6,63cd90c2196ce7878f4ac0b7,$1.97,1.97,,,20.0,5.0,tu-ne,satu,False,,{},1674416961284.0,,,,0.788,2.024,1674416465311.0,1674417220445.0,,,,,,mul,,2,control,,,,,,,,,True,True,False,False,False,False,False,False,False,False,True,,,,,,1,"{'hi': 1.0, 'sa': 2.0, 'ko': 3.0, 'tu': 4.0, 'ne': 5.0}",2-4,4-5,2,12.0,mul,14.0,12.0,False,inf,idk,bad,bad,False
31219,63cd944c58c4334a66b0560a,run1,generalization,,204,,,,204,63cc988c2a276a3b63c222e6,63cd90bccb4ee70c05e4eae7,$1.87,1.87,,,11.0,5.0,hi-su-ne,hine,False,,{},1674416996506.0,,,,5.73,8.265,1674416453737.0,1674417227988.0,,,,,,mul,,2,no_count,,,,,,,,,True,False,False,False,False,False,False,False,False,False,True,,,,,,1,"{'hi': 2.0, 'ka': 4.0, 'to': 3.0, 'ne': 1.0, 'su': 5.0}",2-1,2-5-1,3,8.0,mul,8.0,8.0,False,inf,idk,bad,bad,False
31220,63cd944c58c4334a66b0560a,run1,generalization,,204,,,,204,63cc988c2a276a3b63c222e6,63cd90bccb4ee70c05e4eae7,$1.87,1.87,,,12.0,5.0,hi-su-hi,nehi,False,,{},1674416996506.0,,,,25.951,,1674416453737.0,1674417227988.0,,,,,,add,,2,no_count,,,,,,,,,True,False,False,False,False,False,False,False,False,False,True,,,,,,1,"{'hi': 2.0, 'ka': 4.0, 'to': 3.0, 'ne': 1.0, 'su': 5.0}",1-2,2-5-2,3,9.0,add,9.0,10.0,False,inf,idk,bad,bad,False
31221,63cd944c58c4334a66b0560a,run1,generalization,,204,,,,204,63cc988c2a276a3b63c222e6,63cd90bccb4ee70c05e4eae7,$1.87,1.87,,,13.0,5.0,hi-su-to,neto,True,,{},1674416996506.0,,,,11.565,3.69,1674416453737.0,1674417227988.0,,,,,,add_sf,,2,no_count,,,,,,,,,True,False,False,False,False,False,False,False,False,False,True,,,,,,1,"{'hi': 2.0, 'ka': 4.0, 'to': 3.0, 'ne': 1.0, 'su': 5.0}",1-3,2-5-3,3,0.0,add,9.0,10.0,True,0.0,add,add,add_sf,False
31222,63cd944c58c4334a66b0560a,run1,generalization,,204,,,,204,63cc988c2a276a3b63c222e6,63cd90bccb4ee70c05e4eae7,$1.87,1.87,,,14.0,5.0,hi-su-ka,neka,True,,{},1674416996506.0,,,,0.81,1.98,1674416453737.0,1674417227988.0,,,,,,add_sf,,2,no_count,,,,,,,,,True,False,False,False,False,False,False,False,False,False,True,,,,,,1,"{'hi': 2.0, 'ka': 4.0, 'to': 3.0, 'ne': 1.0, 'su': 5.0}",1-4,2-5-4,3,0.0,add,9.0,10.0,True,0.0,add,add,add_sf,False
