,_id,iterationName,phase,finalCount,GID,workerID,assignmentID,hitID,prolificID,studyID,sessionID,score,totalScore,trial,sectionTrial,num,base,targ,resp,correct,take,distractions,trialStartTime,takeStartTime,trialTime,takeTime,RT,WT,initTime,endTime,gender,age,comments,understood,totalLength,strategy,strategy_other,expt,cond,targetWord,targetNum,responseSide,responseNumber,responseWord,otherNumber,otherWord,missed,syntax,count,duplicate,failedGame,nonsenseGame,failedOutlier,distracted,distractedGame,manualExclude,incomplete,generalized,prim,add,mult,exp,feature_sum,maxrule,lexicon,gloss,targ_gloss,numSyls,normedWT,CT,freq
15218,63cd834758c4334a66b0446b,run1,quiz,False,193.0,,,,193.0,63cc988c2a276a3b63c222e6,63cd82d586100bcee1422586,$0.09,0.09,3.0,0.0,1.0,5.0,ko,ko,1.0,0.0,{},1674412850815.0,1674412850815.0,20961.0,20961.0,19.994,0.967,1674412829191.0,1674412871776.0,,,,,,,,2,control,,,,,,,,,True,True,False,False,False,False,False,False,False,False,True,1.0,0.0,0.0,0.0,1.0,1.0,"{'ko': 1.0, 'na': 2.0, 'te': 3.0, 'si': 4.0, 'hu': 5.0}",1,1,1.0,0.4835,20.4775,0
15220,63cd834b58c4334a66b0446f,run1,quiz,False,193.0,,,,193.0,63cc988c2a276a3b63c222e6,63cd82d586100bcee1422586,$0.12,0.12,4.0,1.0,2.0,5.0,na,na,1.0,0.0,{},1674412872785.0,1674412872785.0,2770.0,2770.0,2.135,0.635,1674412829191.0,1674412875555.0,,,,,,,,2,control,,,,,,,,,True,True,False,False,False,False,False,False,False,False,True,1.0,0.0,0.0,0.0,1.0,1.0,"{'ko': 1.0, 'na': 2.0, 'te': 3.0, 'si': 4.0, 'hu': 5.0}",2,2,1.0,0.3175,2.4524999999999997,0
15226,63cd835958c4334a66b04479,run1,quiz,False,193.0,,,,193.0,63cc988c2a276a3b63c222e6,63cd82d586100bcee1422586,$0.18,0.18,6.0,0.0,1.0,5.0,ko,ko,1.0,0.0,{},1674412887600.0,1674412887600.0,1866.0,1866.0,1.171,0.695,1674412829191.0,1674412889466.0,,,,,,,,2,control,,,,,,,,,True,True,False,False,False,False,False,False,False,False,True,1.0,0.0,0.0,0.0,1.0,1.0,"{'ko': 1.0, 'na': 2.0, 'te': 3.0, 'si': 4.0, 'hu': 5.0}",1,1,1.0,0.3475,1.5185,1
15228,63cd835c58c4334a66b0447c,run1,quiz,False,193.0,,,,193.0,63cc988c2a276a3b63c222e6,63cd82d586100bcee1422586,$0.21,0.21,7.0,1.0,2.0,5.0,na,na,1.0,0.0,{},1674412890472.0,1674412890472.0,1786.0,1786.0,0.868,0.918,1674412829191.0,1674412892258.0,,,,,,,,2,control,,,,,,,,,True,True,False,False,False,False,False,False,False,False,True,1.0,0.0,0.0,0.0,1.0,1.0,"{'ko': 1.0, 'na': 2.0, 'te': 3.0, 'si': 4.0, 'hu': 5.0}",2,2,1.0,0.459,1.327,1
15230,63cd835f58c4334a66b0447f,run1,quiz,False,193.0,,,,193.0,63cc988c2a276a3b63c222e6,63cd82d586100bcee1422586,$0.24,0.24,8.0,2.0,3.0,5.0,te,te,1.0,0.0,{},1674412893263.0,1674412893263.0,1982.0,1982.0,0.835,1.147,1674412829191.0,1674412895245.0,,,,,,,,2,control,,,,,,,,,True,True,False,False,False,False,False,False,False,False,True,1.0,0.0,0.0,0.0,1.0,1.0,"{'ko': 1.0, 'na': 2.0, 'te': 3.0, 'si': 4.0, 'hu': 5.0}",3,3,1.0,0.5735,1.4085,0
15236,63cd836c58c4334a66b04489,run1,quiz,False,193.0,,,,193.0,63cc988c2a276a3b63c222e6,63cd82d586100bcee1422586,$0.3,0.3,10.0,0.0,1.0,5.0,ko,ko,1.0,0.0,{},1674412906889.0,1674412906889.0,1670.0,1670.0,1.07,0.6,1674412829191.0,1674412908559.0,,,,,,,,2,control,,,,,,,,,True,True,False,False,False,False,False,False,False,False,True,1.0,0.0,0.0,0.0,1.0,1.0,"{'ko': 1.0, 'na': 2.0, 'te': 3.0, 'si': 4.0, 'hu': 5.0}",1,1,1.0,0.3,1.37,2
15237,63cd836c58c4334a66b0448a,run1,quiz,False,194.0,,,,194.0,63cc988c2a276a3b63c222e6,63cd82c14591a1ba4aae1fd5,$0.21,0.21,8.0,0.0,5.0,5.0,ki,so,0.0,0.0,{},1674412903978.0,1674412903978.0,4377.0,4377.0,3.698,0.679,1674412833937.0,1674412908355.0,,,,,,,,2,no_count,,,,,,,,,True,False,False,False,False,False,False,False,False,False,True,1.0,0.0,0.0,0.0,1.0,1.0,"{'te': 4.0, 'na': 1.0, 'ki': 5.0, 'hu': 2.0, 'so': 3.0}",3,5,1.0,0.3395,4.0375,0
15238,63cd836e58c4334a66b0448b,run1,quiz,False,193.0,,,,193.0,63cc988c2a276a3b63c222e6,63cd82d586100bcee1422586,$0.33,0.33,11.0,1.0,2.0,5.0,na,na,1.0,0.0,{},1674412909567.0,1674412909567.0,1085.0,1085.0,0.389,0.696,1674412829191.0,1674412910652.0,,,,,,,,2,control,,,,,,,,,True,True,False,False,False,False,False,False,False,False,True,1.0,0.0,0.0,0.0,1.0,1.0,"{'ko': 1.0, 'na': 2.0, 'te': 3.0, 'si': 4.0, 'hu': 5.0}",2,2,1.0,0.348,0.737,2
15239,63cd837158c4334a66b0448d,run1,quiz,False,193.0,,,,193.0,63cc988c2a276a3b63c222e6,63cd82d586100bcee1422586,$0.36,0.36,12.0,2.0,3.0,5.0,te,te,1.0,0.0,{},1674412911656.0,1674412911656.0,1631.0,1631.0,0.42,1.211,1674412829191.0,1674412913287.0,,,,,,,,2,control,,,,,,,,,True,True,False,False,False,False,False,False,False,False,True,1.0,0.0,0.0,0.0,1.0,1.0,"{'ko': 1.0, 'na': 2.0, 'te': 3.0, 'si': 4.0, 'hu': 5.0}",3,3,1.0,0.6055,1.0255,1
15240,63cd837358c4334a66b0448f,run1,quiz,False,193.0,,,,193.0,63cc988c2a276a3b63c222e6,63cd82d586100bcee1422586,$0.39,0.39,13.0,3.0,4.0,5.0,si,si,1.0,0.0,{},1674412914295.0,1674412914295.0,1844.0,1844.0,1.15,0.694,1674412829191.0,1674412916139.0,,,,,,,,2,control,,,,,,,,,True,True,False,False,False,False,False,False,False,False,True,1.0,0.0,0.0,0.0,1.0,1.0,"{'ko': 1.0, 'na': 2.0, 'te': 3.0, 'si': 4.0, 'hu': 5.0}",4,4,1.0,0.347,1.4969999999999999,0
15245,63cd838058c4334a66b04496,run1,quiz,False,193.0,,,,193.0,63cc988c2a276a3b63c222e6,63cd82d586100bcee1422586,$0.45,0.45,15.0,0.0,1.0,5.0,ko,ko,1.0,0.0,{},1674412926592.0,1674412926592.0,1839.0,1839.0,1.252,0.587,1674412829191.0,1674412928431.0,,,,,,,,2,control,,,,,,,,,True,True,False,False,False,False,False,False,False,False,True,1.0,0.0,0.0,0.0,1.0,1.0,"{'ko': 1.0, 'na': 2.0, 'te': 3.0, 'si': 4.0, 'hu': 5.0}",1,1,1.0,0.2935,1.5455,3
15246,63cd838258c4334a66b04497,run1,quiz,False,193.0,,,,193.0,63cc988c2a276a3b63c222e6,63cd82d586100bcee1422586,$0.48,0.48,16.0,1.0,2.0,5.0,na,na,1.0,0.0,{},1674412929439.0,1674412929439.0,970.0,970.0,0.333,0.637,1674412829191.0,1674412930409.0,,,,,,,,2,control,,,,,,,,,True,True,False,False,False,False,False,False,False,False,True,1.0,0.0,0.0,0.0,1.0,1.0,"{'ko': 1.0, 'na': 2.0, 'te': 3.0, 'si': 4.0, 'hu': 5.0}",2,2,1.0,0.3185,0.6515,3
15247,63cd838458c4334a66b04498,run1,quiz,False,193.0,,,,193.0,63cc988c2a276a3b63c222e6,63cd82d586100bcee1422586,$0.51,0.51,17.0,2.0,3.0,5.0,te,te,1.0,0.0,{},1674412931416.0,1674412931416.0,833.0,833.0,0.331,0.502,1674412829191.0,1674412932249.0,,,,,,,,2,control,,,,,,,,,True,True,False,False,False,False,False,False,False,False,True,1.0,0.0,0.0,0.0,1.0,1.0,"{'ko': 1.0, 'na': 2.0, 'te': 3.0, 'si': 4.0, 'hu': 5.0}",3,3,1.0,0.251,0.5820000000000001,2
15248,63cd838658c4334a66b04499,run1,quiz,False,193.0,,,,193.0,63cc988c2a276a3b63c222e6,63cd82d586100bcee1422586,$0.54,0.54,18.0,3.0,4.0,5.0,si,si,1.0,0.0,{},1674412933256.0,1674412933256.0,1104.0,1104.0,0.309,0.795,1674412829191.0,1674412934360.0,,,,,,,,2,control,,,,,,,,,True,True,False,False,False,False,False,False,False,False,True,1.0,0.0,0.0,0.0,1.0,1.0,"{'ko': 1.0, 'na': 2.0, 'te': 3.0, 'si': 4.0, 'hu': 5.0}",4,4,1.0,0.3975,0.7065,1
15249,63cd838758c4334a66b0449b,run1,quiz,False,194.0,,,,194.0,63cc988c2a276a3b63c222e6,63cd82c14591a1ba4aae1fd5,$0.21,0.21,9.0,1.0,4.0,5.0,te,hi,0.0,0.0,{},1674412926961.0,1674412926961.0,8461.0,8461.0,7.644,0.817,1674412833937.0,1674412935422.0,,,,,,,,2,no_count,,,,,,,,,True,False,False,False,False,False,False,False,False,False,True,1.0,0.0,0.0,0.0,1.0,1.0,"{'te': 4.0, 'na': 1.0, 'ki': 5.0, 'hu': 2.0, 'so': 3.0}",hi,4,1.0,0.4085,8.0525,0
15250,63cd838858c4334a66b0449c,run1,quiz,False,193.0,,,,193.0,63cc988c2a276a3b63c222e6,63cd82d586100bcee1422586,$0.57,0.57,19.0,4.0,5.0,5.0,hu,hu,1.0,0.0,{},1674412935382.0,1674412935382.0,1553.0,1553.0,0.299,1.254,1674412829191.0,1674412936935.0,,,,,,,,2,control,,,,,,,,,True,True,False,False,False,False,False,False,False,False,True,1.0,0.0,0.0,0.0,1.0,1.0,"{'ko': 1.0, 'na': 2.0, 'te': 3.0, 'si': 4.0, 'hu': 5.0}",5,5,1.0,0.627,0.9259999999999999,0
15252,63cd838d58c4334a66b0449f,run1,quiz,False,194.0,,,,194.0,63cc988c2a276a3b63c222e6,63cd82c14591a1ba4aae1fd5,$0.26,0.26,10.0,2.0,4.0,5.0,te,te,1.0,0.0,{},1674412939779.0,1674412939779.0,1621.0,1621.0,1.074,0.547,1674412833937.0,1674412941400.0,,,,,,,,2,no_count,,,,,,,,,True,False,False,False,False,False,False,False,False,False,True,1.0,0.0,0.0,0.0,1.0,1.0,"{'te': 4.0, 'na': 1.0, 'ki': 5.0, 'hu': 2.0, 'so': 3.0}",4,4,1.0,0.2735,1.3475000000000001,1
15259,63cd839958c4334a66b044a9,run1,quiz,False,193.0,,,,193.0,63cc988c2a276a3b63c222e6,63cd82d586100bcee1422586,$0.63,0.63,21.0,0.0,1.0,5.0,ko,ko,1.0,0.0,{},1674412952761.0,1674412952761.0,1382.0,1382.0,0.657,0.725,1674412829191.0,1674412954143.0,,,,,,,,2,control,,,,,,,,,True,True,False,False,False,False,False,False,False,False,True,1.0,0.0,0.0,0.0,1.0,1.0,"{'ko': 1.0, 'na': 2.0, 'te': 3.0, 'si': 4.0, 'hu': 5.0}",1,1,1.0,0.3625,1.0195,4
15261,63cd839b58c4334a66b044ab,run1,quiz,False,194.0,,,,194.0,63cc988c2a276a3b63c222e6,63cd82c14591a1ba4aae1fd5,$0.29,0.29,12.0,0.0,5.0,5.0,ki,teko,0.0,0.0,{},1674412951052.0,1674412951052.0,4091.0,4091.0,2.815,1.276,1674412833937.0,1674412955143.0,,,,,,,,2,no_count,,,,,,,,,True,False,False,False,False,False,False,False,False,False,True,1.0,0.0,0.0,0.0,1.0,1.0,"{'te': 4.0, 'na': 1.0, 'ki': 5.0, 'hu': 2.0, 'so': 3.0}",4-ko,5,1.0,0.319,3.134,1
15262,63cd839b58c4334a66b044ad,run1,quiz,False,193.0,,,,193.0,63cc988c2a276a3b63c222e6,63cd82d586100bcee1422586,$0.66,0.66,22.0,1.0,2.0,5.0,na,na,1.0,0.0,{},1674412955152.0,1674412955152.0,873.0,873.0,0.315,0.558,1674412829191.0,1674412956025.0,,,,,,,,2,control,,,,,,,,,True,True,False,False,False,False,False,False,False,False,True,1.0,0.0,0.0,0.0,1.0,1.0,"{'ko': 1.0, 'na': 2.0, 'te': 3.0, 'si': 4.0, 'hu': 5.0}",2,2,1.0,0.279,0.5940000000000001,4
15264,63cd839d58c4334a66b044b0,run1,quiz,False,193.0,,,,193.0,63cc988c2a276a3b63c222e6,63cd82d586100bcee1422586,$0.69,0.69,23.0,2.0,3.0,5.0,te,te,1.0,0.0,{},1674412957032.0,1674412957032.0,771.0,771.0,0.323,0.448,1674412829191.0,1674412957803.0,,,,,,,,2,control,,,,,,,,,True,True,False,False,False,False,False,False,False,False,True,1.0,0.0,0.0,0.0,1.0,1.0,"{'ko': 1.0, 'na': 2.0, 'te': 3.0, 'si': 4.0, 'hu': 5.0}",3,3,1.0,0.224,0.547,3
15265,63cd839f58c4334a66b044b1,run1,quiz,False,193.0,,,,193.0,63cc988c2a276a3b63c222e6,63cd82d586100bcee1422586,$0.72,0.72,24.0,3.0,4.0,5.0,si,si,1.0,0.0,{},1674412958809.0,1674412958809.0,920.0,920.0,0.265,0.655,1674412829191.0,1674412959729.0,,,,,,,,2,control,,,,,,,,,True,True,False,False,False,False,False,False,False,False,True,1.0,0.0,0.0,0.0,1.0,1.0,"{'ko': 1.0, 'na': 2.0, 'te': 3.0, 'si': 4.0, 'hu': 5.0}",4,4,1.0,0.3275,0.5925,2
15268,63cd83a258c4334a66b044b5,run1,quiz,False,193.0,,,,193.0,63cc988c2a276a3b63c222e6,63cd82d586100bcee1422586,$0.75,0.75,25.0,4.0,5.0,5.0,hu,hu,1.0,0.0,{},1674412960735.0,1674412960735.0,1614.0,1614.0,0.325,1.289,1674412829191.0,1674412962349.0,,,,,,,,2,control,,,,,,,,,True,True,False,False,False,False,False,False,False,False,True,1.0,0.0,0.0,0.0,1.0,1.0,"{'ko': 1.0, 'na': 2.0, 'te': 3.0, 'si': 4.0, 'hu': 5.0}",5,5,1.0,0.6445,0.9695,1
15270,63cd83a558c4334a66b044b9,run1,quiz,False,193.0,,,,193.0,63cc988c2a276a3b63c222e6,63cd82d586100bcee1422586,$0.78,0.78,26.0,5.0,6.0,5.0,hu-ko,huko,1.0,0.0,{},1674412963351.0,1674412963351.0,1853.0,1853.0,0.682,1.171,1674412829191.0,1674412965204.0,,,,,,,,2,control,,,,,,,,,True,True,False,False,False,False,False,False,False,False,True,0.0,1.0,0.0,0.0,1.0,2.0,"{'ko': 1.0, 'na': 2.0, 'te': 3.0, 'si': 4.0, 'hu': 5.0}",5-1,5-1,2.0,0.29275,0.97475,0
15271,63cd83a758c4334a66b044ba,run1,quiz,False,195.0,,,,195.0,63cc988c2a276a3b63c222e6,63cd82d3d1db04dd3a8b1a7e,$0.12,0.12,4.0,0.0,2.0,5.0,na,na,1.0,0.0,{},1674412965462.0,1674412965462.0,3119.0,3119.0,2.111,1.008,1674412935900.0,1674412968581.0,,,,,,,,2,no_count,,,,,,,,,True,False,False,False,False,False,False,False,False,False,True,1.0,0.0,0.0,0.0,1.0,1.0,"{'se': 4.0, 'ki': 1.0, 'na': 2.0, 'to': 3.0, 'hu': 5.0}",2,2,1.0,0.504,2.615,0
15277,63cd83b458c4334a66b044c2,run1,quiz,False,194.0,,,,194.0,63cc988c2a276a3b63c222e6,63cd82c14591a1ba4aae1fd5,$0.32,0.32,13.0,1.0,4.0,5.0,te,te,1.0,0.0,{},1674412978330.0,1674412978330.0,2359.0,2359.0,1.754,0.605,1674412833937.0,1674412980689.0,,,,,,,,2,no_count,,,,,,,,,True,False,False,False,False,False,False,False,False,False,True,1.0,0.0,0.0,0.0,1.0,1.0,"{'te': 4.0, 'na': 1.0, 'ki': 5.0, 'hu': 2.0, 'so': 3.0}",4,4,1.0,0.3025,2.0564999999999998,2
15278,63cd83b458c4334a66b044c3,run1,quiz,False,193.0,,,,193.0,63cc988c2a276a3b63c222e6,63cd82d586100bcee1422586,$0.84,0.84,28.0,0.0,1.0,5.0,ko,ko,1.0,0.0,{},1674412979896.0,1674412979896.0,1076.0,1076.0,0.38,0.696,1674412829191.0,1674412980972.0,,,,,,,,2,control,,,,,,,,,True,True,False,False,False,False,False,False,False,False,True,1.0,0.0,0.0,0.0,1.0,1.0,"{'ko': 1.0, 'na': 2.0, 'te': 3.0, 'si': 4.0, 'hu': 5.0}",1,1,1.0,0.348,0.728,5
15279,63cd83b658c4334a66b044c4,run1,quiz,False,193.0,,,,193.0,63cc988c2a276a3b63c222e6,63cd82d586100bcee1422586,$0.87,0.87,29.0,1.0,2.0,5.0,na,na,1.0,0.0,{},1674412981975.0,1674412981975.0,1034.0,1034.0,0.348,0.686,1674412829191.0,1674412983009.0,,,,,,,,2,control,,,,,,,,,True,True,False,False,False,False,False,False,False,False,True,1.0,0.0,0.0,0.0,1.0,1.0,"{'ko': 1.0, 'na': 2.0, 'te': 3.0, 'si': 4.0, 'hu': 5.0}",2,2,1.0,0.343,0.6910000000000001,5
15280,63cd83b858c4334a66b044c6,run1,quiz,False,193.0,,,,193.0,63cc988c2a276a3b63c222e6,63cd82d586100bcee1422586,$0.9,0.9,30.0,2.0,3.0,5.0,te,te,1.0,0.0,{},1674412984015.0,1674412984015.0,1075.0,1075.0,0.443,0.632,1674412829191.0,1674412985090.0,,,,,,,,2,control,,,,,,,,,True,True,False,False,False,False,False,False,False,False,True,1.0,0.0,0.0,0.0,1.0,1.0,"{'ko': 1.0, 'na': 2.0, 'te': 3.0, 'si': 4.0, 'hu': 5.0}",3,3,1.0,0.316,0.759,4
15282,63cd83ba58c4334a66b044c8,run1,quiz,False,193.0,,,,193.0,63cc988c2a276a3b63c222e6,63cd82d586100bcee1422586,$0.93,0.93,31.0,3.0,4.0,5.0,si,si,1.0,0.0,{},1674412986096.0,1674412986096.0,970.0,970.0,0.299,0.671,1674412829191.0,1674412987066.0,,,,,,,,2,control,,,,,,,,,True,True,False,False,False,False,False,False,False,False,True,1.0,0.0,0.0,0.0,1.0,1.0,"{'ko': 1.0, 'na': 2.0, 'te': 3.0, 'si': 4.0, 'hu': 5.0}",4,4,1.0,0.3355,0.6345000000000001,3
15284,63cd83bc58c4334a66b044cb,run1,quiz,False,193.0,,,,193.0,63cc988c2a276a3b63c222e6,63cd82d586100bcee1422586,$0.96,0.96,32.0,4.0,5.0,5.0,hu,hu,1.0,0.0,{},1674412988071.0,1674412988071.0,1027.0,1027.0,0.244,0.783,1674412829191.0,1674412989098.0,,,,,,,,2,control,,,,,,,,,True,True,False,False,False,False,False,False,False,False,True,1.0,0.0,0.0,0.0,1.0,1.0,"{'ko': 1.0, 'na': 2.0, 'te': 3.0, 'si': 4.0, 'hu': 5.0}",5,5,1.0,0.3915,0.6355,2
15287,63cd83bf58c4334a66b044cf,run1,quiz,False,193.0,,,,193.0,63cc988c2a276a3b63c222e6,63cd82d586100bcee1422586,$0.99,0.99,33.0,5.0,6.0,5.0,hu-ko,huko,1.0,0.0,{},1674412990104.0,1674412990104.0,1744.0,1744.0,0.258,1.486,1674412829191.0,1674412991848.0,,,,,,,,2,control,,,,,,,,,True,True,False,False,False,False,False,False,False,False,True,0.0,1.0,0.0,0.0,1.0,2.0,"{'ko': 1.0, 'na': 2.0, 'te': 3.0, 'si': 4.0, 'hu': 5.0}",5-1,5-1,2.0,0.3715,0.6295,1
15288,63cd83c158c4334a66b044d1,run1,quiz,False,194.0,,,,194.0,63cc988c2a276a3b63c222e6,63cd82c14591a1ba4aae1fd5,$0.35,0.35,15.0,3.0,3.0,5.0,so,te,0.0,0.0,{},1674412991380.0,1674412991380.0,2065.0,2065.0,1.252,0.813,1674412833937.0,1674412993445.0,,,,,,,,2,no_count,,,,,,,,,True,False,False,False,False,False,False,False,False,False,True,1.0,0.0,0.0,0.0,1.0,1.0,"{'te': 4.0, 'na': 1.0, 'ki': 5.0, 'hu': 2.0, 'so': 3.0}",4,3,1.0,0.4065,1.6585,0
15289,63cd83c258c4334a66b044d2,run1,quiz,False,195.0,,,,195.0,63cc988c2a276a3b63c222e6,63cd82d3d1db04dd3a8b1a7e,$0.21,0.21,7.0,0.0,1.0,5.0,ki,ki,1.0,0.0,{},1674412992247.0,1674412992247.0,2710.0,2710.0,1.966,0.744,1674412935900.0,1674412994957.0,,,,,,,,2,no_count,,,,,,,,,True,False,False,False,False,False,False,False,False,False,True,1.0,0.0,0.0,0.0,1.0,1.0,"{'se': 4.0, 'ki': 1.0, 'na': 2.0, 'to': 3.0, 'hu': 5.0}",1,1,1.0,0.372,2.338,0
15290,63cd83c358c4334a66b044d3,run1,quiz,False,193.0,,,,193.0,63cc988c2a276a3b63c222e6,63cd82d586100bcee1422586,$1.02,1.02,34.0,6.0,7.0,5.0,hu-na,huna,1.0,0.0,{},1674412992868.0,1674412992868.0,3018.0,3018.0,0.372,2.646,1674412829191.0,1674412995886.0,,,,,,,,2,control,,,,,,,,,True,True,False,False,False,False,False,False,False,False,True,0.0,1.0,0.0,0.0,1.0,2.0,"{'ko': 1.0, 'na': 2.0, 'te': 3.0, 'si': 4.0, 'hu': 5.0}",5-2,5-2,2.0,0.6615,1.0335,0
15298,63cd83d258c4334a66b044df,run1,quiz,False,195.0,,,,195.0,63cc988c2a276a3b63c222e6,63cd82d3d1db04dd3a8b1a7e,$0.27,0.27,9.0,2.0,3.0,5.0,to,to,1.0,0.0,{},1674413006103.0,1674413006103.0,5110.0,5110.0,2.909,2.201,1674412935900.0,1674413011213.0,,,,,,,,2,no_count,,,,,,,,,True,False,False,False,False,False,False,False,False,False,True,1.0,0.0,0.0,0.0,1.0,1.0,"{'se': 4.0, 'ki': 1.0, 'na': 2.0, 'to': 3.0, 'hu': 5.0}",3,3,1.0,1.1005,4.0095,0
15299,63cd83d458c4334a66b044e1,run1,quiz,False,193.0,,,,193.0,63cc988c2a276a3b63c222e6,63cd82d586100bcee1422586,$1.08,1.08,36.0,0.0,1.0,5.0,ko,ko,1.0,0.0,{},1674413011091.0,1674413011091.0,1302.0,1302.0,0.73,0.572,1674412829191.0,1674413012393.0,,,,,,,,2,control,,,,,,,,,True,True,False,False,False,False,False,False,False,False,True,1.0,0.0,0.0,0.0,1.0,1.0,"{'ko': 1.0, 'na': 2.0, 'te': 3.0, 'si': 4.0, 'hu': 5.0}",1,1,1.0,0.286,1.016,6
15300,63cd83d458c4334a66b044e2,run1,quiz,False,194.0,,,,194.0,63cc988c2a276a3b63c222e6,63cd82c14591a1ba4aae1fd5,$0.43,0.43,17.0,0.0,5.0,5.0,ki,ki,1.0,0.0,{},1674413008303.0,1674413008303.0,4492.0,4492.0,3.847,0.645,1674412833937.0,1674413012795.0,,,,,,,,2,no_count,,,,,,,,,True,False,False,False,False,False,False,False,False,False,True,1.0,0.0,0.0,0.0,1.0,1.0,"{'te': 4.0, 'na': 1.0, 'ki': 5.0, 'hu': 2.0, 'so': 3.0}",5,5,1.0,0.3225,4.1695,2
15301,63cd83d658c4334a66b044e4,run1,quiz,False,193.0,,,,193.0,63cc988c2a276a3b63c222e6,63cd82d586100bcee1422586,$1.11,1.11,37.0,1.0,2.0,5.0,na,na,1.0,0.0,{},1674413013403.0,1674413013403.0,934.0,934.0,0.297,0.637,1674412829191.0,1674413014337.0,,,,,,,,2,control,,,,,,,,,True,True,False,False,False,False,False,False,False,False,True,1.0,0.0,0.0,0.0,1.0,1.0,"{'ko': 1.0, 'na': 2.0, 'te': 3.0, 'si': 4.0, 'hu': 5.0}",2,2,1.0,0.3185,0.6154999999999999,6
15302,63cd83d858c4334a66b044e5,run1,quiz,False,193.0,,,,193.0,63cc988c2a276a3b63c222e6,63cd82d586100bcee1422586,$1.14,1.14,38.0,2.0,3.0,5.0,te,te,1.0,0.0,{},1674413015348.0,1674413015348.0,1118.0,1118.0,0.285,0.833,1674412829191.0,1674413016466.0,,,,,,,,2,control,,,,,,,,,True,True,False,False,False,False,False,False,False,False,True,1.0,0.0,0.0,0.0,1.0,1.0,"{'ko': 1.0, 'na': 2.0, 'te': 3.0, 'si': 4.0, 'hu': 5.0}",3,3,1.0,0.4165,0.7015,5
15304,63cd83da58c4334a66b044e7,run1,quiz,False,193.0,,,,193.0,63cc988c2a276a3b63c222e6,63cd82d586100bcee1422586,$1.17,1.17,39.0,3.0,4.0,5.0,si,si,1.0,0.0,{},1674413017471.0,1674413017471.0,1513.0,1513.0,0.712,0.801,1674412829191.0,1674413018984.0,,,,,,,,2,control,,,,,,,,,True,True,False,False,False,False,False,False,False,False,True,1.0,0.0,0.0,0.0,1.0,1.0,"{'ko': 1.0, 'na': 2.0, 'te': 3.0, 'si': 4.0, 'hu': 5.0}",4,4,1.0,0.4005,1.1125,4
15305,63cd83dc58c4334a66b044e8,run1,quiz,False,194.0,,,,194.0,63cc988c2a276a3b63c222e6,63cd82c14591a1ba4aae1fd5,$0.43,0.43,18.0,1.0,1.0,5.0,na,so,0.0,0.0,{},1674413013806.0,1674413013806.0,6579.0,6579.0,6.076,0.503,1674412833937.0,1674413020385.0,,,,,,,,2,no_count,,,,,,,,,True,False,False,False,False,False,False,False,False,False,True,1.0,0.0,0.0,0.0,1.0,1.0,"{'te': 4.0, 'na': 1.0, 'ki': 5.0, 'hu': 2.0, 'so': 3.0}",3,1,1.0,0.2515,6.3275,0
15306,63cd83dd58c4334a66b044ea,run1,quiz,False,193.0,,,,193.0,63cc988c2a276a3b63c222e6,63cd82d586100bcee1422586,$1.2,1.2,40.0,4.0,5.0,5.0,hu,hu,1.0,0.0,{},1674413019992.0,1674413019992.0,1483.0,1483.0,0.266,1.217,1674412829191.0,1674413021475.0,,,,,,,,2,control,,,,,,,,,True,True,False,False,False,False,False,False,False,False,True,1.0,0.0,0.0,0.0,1.0,1.0,"{'ko': 1.0, 'na': 2.0, 'te': 3.0, 'si': 4.0, 'hu': 5.0}",5,5,1.0,0.6085,0.8745,3
15308,63cd83e158c4334a66b044ed,run1,quiz,False,193.0,,,,193.0,63cc988c2a276a3b63c222e6,63cd82d586100bcee1422586,$1.23,1.23,41.0,5.0,6.0,5.0,hu-ko,huko,1.0,0.0,{},1674413022479.0,1674413022479.0,2863.0,2863.0,0.285,2.578,1674412829191.0,1674413025342.0,,,,,,,,2,control,,,,,,,,,True,True,False,False,False,False,False,False,False,False,True,0.0,1.0,0.0,0.0,1.0,2.0,"{'ko': 1.0, 'na': 2.0, 'te': 3.0, 'si': 4.0, 'hu': 5.0}",5-1,5-1,2.0,0.6445,0.9295,2
15309,63cd83e258c4334a66b044ee,run1,quiz,False,195.0,,,,195.0,63cc988c2a276a3b63c222e6,63cd82d3d1db04dd3a8b1a7e,$0.33,0.33,11.0,0.0,1.0,5.0,ki,ki,1.0,0.0,{},1674413023919.0,1674413023919.0,3166.0,3166.0,1.582,1.584,1674412935900.0,1674413027085.0,,,,,,,,2,no_count,,,,,,,,,True,False,False,False,False,False,False,False,False,False,True,1.0,0.0,0.0,0.0,1.0,1.0,"{'se': 4.0, 'ki': 1.0, 'na': 2.0, 'to': 3.0, 'hu': 5.0}",1,1,1.0,0.792,2.374,1
15311,63cd83e558c4334a66b044f1,run1,quiz,False,193.0,,,,193.0,63cc988c2a276a3b63c222e6,63cd82d586100bcee1422586,$1.26,1.26,42.0,6.0,7.0,5.0,hu-na,huna,1.0,0.0,{},1674413026351.0,1674413026351.0,2707.0,2707.0,0.297,2.41,1674412829191.0,1674413029058.0,,,,,,,,2,control,,,,,,,,,True,True,False,False,False,False,False,False,False,False,True,0.0,1.0,0.0,0.0,1.0,2.0,"{'ko': 1.0, 'na': 2.0, 'te': 3.0, 'si': 4.0, 'hu': 5.0}",5-2,5-2,2.0,0.6025,0.8995,1
15313,63cd83e758c4334a66b044f4,run1,quiz,False,195.0,,,,195.0,63cc988c2a276a3b63c222e6,63cd82d3d1db04dd3a8b1a7e,$0.36,0.36,12.0,1.0,2.0,5.0,na,na,1.0,0.0,{},1674413028095.0,1674413028095.0,4198.0,4198.0,3.477,0.721,1674412935900.0,1674413032293.0,,,,,,,,2,no_count,,,,,,,,,True,False,False,False,False,False,False,False,False,False,True,1.0,0.0,0.0,0.0,1.0,1.0,"{'se': 4.0, 'ki': 1.0, 'na': 2.0, 'to': 3.0, 'hu': 5.0}",2,2,1.0,0.3605,3.8375,1
15314,63cd83e958c4334a66b044f5,run1,quiz,False,193.0,,,,193.0,63cc988c2a276a3b63c222e6,63cd82d586100bcee1422586,$1.29,1.29,43.0,7.0,8.0,5.0,hu-te,hute,1.0,0.0,{},1674413030064.0,1674413030064.0,3131.0,3131.0,0.32,2.811,1674412829191.0,1674413033195.0,,,,,,,,2,control,,,,,,,,,True,True,False,False,False,False,False,False,False,False,True,0.0,1.0,0.0,0.0,1.0,2.0,"{'ko': 1.0, 'na': 2.0, 'te': 3.0, 'si': 4.0, 'hu': 5.0}",5-3,5-3,2.0,0.70275,1.02275,0
15315,63cd83e958c4334a66b044f7,run1,quiz,False,194.0,,,,194.0,63cc988c2a276a3b63c222e6,63cd82c14591a1ba4aae1fd5,$0.46,0.46,19.0,2.0,1.0,5.0,na,na,1.0,0.0,{},1674413031365.0,1674413031365.0,2002.0,2002.0,1.225,0.777,1674412833937.0,1674413033367.0,,,,,,,,2,no_count,,,,,,,,,True,False,False,False,False,False,False,False,False,False,True,1.0,0.0,0.0,0.0,1.0,1.0,"{'te': 4.0, 'na': 1.0, 'ki': 5.0, 'hu': 2.0, 'so': 3.0}",1,1,1.0,0.3885,1.6135000000000002,1
15317,63cd83ec58c4334a66b044fa,run1,quiz,False,195.0,,,,195.0,63cc988c2a276a3b63c222e6,63cd82d3d1db04dd3a8b1a7e,$0.39,0.39,13.0,2.0,8.0,5.0,hu-to,huto,1.0,0.0,{},1674413033303.0,1674413033303.0,4127.0,4127.0,2.398,1.729,1674412935900.0,1674413037430.0,,,,,,,,2,no_count,,,,,,,,,True,False,False,False,False,False,False,False,False,False,True,0.0,1.0,0.0,0.0,1.0,2.0,"{'se': 4.0, 'ki': 1.0, 'na': 2.0, 'to': 3.0, 'hu': 5.0}",5-3,5-3,2.0,0.43225,2.8302500000000004,0
15321,63cd83f558c4334a66b04500,run1,quiz,False,194.0,,,,194.0,63cc988c2a276a3b63c222e6,63cd82c14591a1ba4aae1fd5,$0.46,0.46,20.0,3.0,2.0,5.0,hu,so,0.0,0.0,{},1674413034374.0,1674413034374.0,10561.0,10561.0,8.994,1.567,1674412833937.0,1674413044935.0,,,,,,,,2,no_count,,,,,,,,,True,False,False,False,False,False,False,False,False,False,True,1.0,0.0,0.0,0.0,1.0,1.0,"{'te': 4.0, 'na': 1.0, 'ki': 5.0, 'hu': 2.0, 'so': 3.0}",3,2,1.0,0.7835,9.7775,0
15323,63cd83f758c4334a66b04503,run1,quiz,False,193.0,,,,193.0,63cc988c2a276a3b63c222e6,63cd82d586100bcee1422586,$1.35,1.35,45.0,0.0,1.0,5.0,ko,ko,1.0,0.0,{},1674413045144.0,1674413045144.0,2445.0,2445.0,1.826,0.619,1674412829191.0,1674413047589.0,,,,,,,,2,control,,,,,,,,,True,True,False,False,False,False,False,False,False,False,True,1.0,0.0,0.0,0.0,1.0,1.0,"{'ko': 1.0, 'na': 2.0, 'te': 3.0, 'si': 4.0, 'hu': 5.0}",1,1,1.0,0.3095,2.1355,7
15325,63cd83f958c4334a66b04505,run1,quiz,False,193.0,,,,193.0,63cc988c2a276a3b63c222e6,63cd82d586100bcee1422586,$1.38,1.38,46.0,1.0,2.0,5.0,na,na,1.0,0.0,{},1674413048591.0,1674413048591.0,903.0,903.0,0.273,0.63,1674412829191.0,1674413049494.0,,,,,,,,2,control,,,,,,,,,True,True,False,False,False,False,False,False,False,False,True,1.0,0.0,0.0,0.0,1.0,1.0,"{'ko': 1.0, 'na': 2.0, 'te': 3.0, 'si': 4.0, 'hu': 5.0}",2,2,1.0,0.315,0.5880000000000001,7
15327,63cd83fb58c4334a66b04508,run1,quiz,False,193.0,,,,193.0,63cc988c2a276a3b63c222e6,63cd82d586100bcee1422586,$1.41,1.41,47.0,2.0,3.0,5.0,te,te,1.0,0.0,{},1674413050504.0,1674413050504.0,1548.0,1548.0,0.752,0.796,1674412829191.0,1674413052052.0,,,,,,,,2,control,,,,,,,,,True,True,False,False,False,False,False,False,False,False,True,1.0,0.0,0.0,0.0,1.0,1.0,"{'ko': 1.0, 'na': 2.0, 'te': 3.0, 'si': 4.0, 'hu': 5.0}",3,3,1.0,0.398,1.15,6
15329,63cd83fd58c4334a66b0450b,run1,quiz,False,193.0,,,,193.0,63cc988c2a276a3b63c222e6,63cd82d586100bcee1422586,$1.44,1.44,48.0,3.0,4.0,5.0,si,si,1.0,0.0,{},1674413053055.0,1674413053055.0,1039.0,1039.0,0.246,0.793,1674412829191.0,1674413054094.0,,,,,,,,2,control,,,,,,,,,True,True,False,False,False,False,False,False,False,False,True,1.0,0.0,0.0,0.0,1.0,1.0,"{'ko': 1.0, 'na': 2.0, 'te': 3.0, 'si': 4.0, 'hu': 5.0}",4,4,1.0,0.3965,0.6425000000000001,5
15330,63cd83ff58c4334a66b0450d,run1,quiz,False,195.0,,,,195.0,63cc988c2a276a3b63c222e6,63cd82d3d1db04dd3a8b1a7e,$0.45,0.45,16.0,0.0,9.0,5.0,hu-se,huki,0.0,0.0,{},1674413052854.0,1674413052854.0,3127.0,3127.0,1.79,1.337,1674412935900.0,1674413055981.0,,,,,,,,2,no_count,,,,,,,,,True,False,False,False,False,False,False,False,False,False,True,0.0,1.0,0.0,0.0,1.0,2.0,"{'se': 4.0, 'ki': 1.0, 'na': 2.0, 'to': 3.0, 'hu': 5.0}",5-1,5-4,2.0,0.33425,2.12425,0
15331,63cd840058c4334a66b0450e,run1,quiz,False,193.0,,,,193.0,63cc988c2a276a3b63c222e6,63cd82d586100bcee1422586,$1.47,1.47,49.0,4.0,5.0,5.0,hu,hu,1.0,0.0,{},1674413055103.0,1674413055103.0,1073.0,1073.0,0.32,0.753,1674412829191.0,1674413056176.0,,,,,,,,2,control,,,,,,,,,True,True,False,False,False,False,False,False,False,False,True,1.0,0.0,0.0,0.0,1.0,1.0,"{'ko': 1.0, 'na': 2.0, 'te': 3.0, 'si': 4.0, 'hu': 5.0}",5,5,1.0,0.3765,0.6965,4
15332,63cd840058c4334a66b0450f,run1,quiz,False,194.0,,,,194.0,63cc988c2a276a3b63c222e6,63cd82c14591a1ba4aae1fd5,$0.49,0.49,21.0,4.0,1.0,5.0,na,na,1.0,0.0,{},1674413054344.0,1674413054344.0,2457.0,2457.0,1.629,0.828,1674412833937.0,1674413056801.0,,,,,,,,2,no_count,,,,,,,,,True,False,False,False,False,False,False,False,False,False,True,1.0,0.0,0.0,0.0,1.0,1.0,"{'te': 4.0, 'na': 1.0, 'ki': 5.0, 'hu': 2.0, 'so': 3.0}",1,1,1.0,0.414,2.043,2
15333,63cd840258c4334a66b04511,run1,quiz,False,193.0,,,,193.0,63cc988c2a276a3b63c222e6,63cd82d586100bcee1422586,$1.5,1.5,50.0,5.0,6.0,5.0,hu-ko,huko,1.0,0.0,{},1674413057183.0,1674413057183.0,1963.0,1963.0,0.275,1.688,1674412829191.0,1674413059146.0,,,,,,,,2,control,,,,,,,,,True,True,False,False,False,False,False,False,False,False,True,0.0,1.0,0.0,0.0,1.0,2.0,"{'ko': 1.0, 'na': 2.0, 'te': 3.0, 'si': 4.0, 'hu': 5.0}",5-1,5-1,2.0,0.422,0.6970000000000001,3
15335,63cd840458c4334a66b04513,run1,quiz,False,194.0,,,,194.0,63cc988c2a276a3b63c222e6,63cd82c14591a1ba4aae1fd5,$0.49,0.49,22.0,0.0,7.0,5.0,ki-hu,hiku,0.0,0.0,{},1674413057815.0,1674413057815.0,2884.0,2884.0,1.559,1.325,1674412833937.0,1674413060699.0,,,,,,,,2,no_count,,,,,,,,,True,False,False,False,False,False,False,False,False,False,True,0.0,1.0,0.0,0.0,1.0,2.0,"{'te': 4.0, 'na': 1.0, 'ki': 5.0, 'hu': 2.0, 'so': 3.0}",hiku,5-2,2.0,0.33125,1.89025,0
15336,63cd840658c4334a66b04516,run1,quiz,False,193.0,,,,193.0,63cc988c2a276a3b63c222e6,63cd82d586100bcee1422586,$1.53,1.53,51.0,6.0,7.0,5.0,hu-na,huna,1.0,0.0,{},1674413060152.0,1674413060152.0,2962.0,2962.0,0.88,2.082,1674412829191.0,1674413063114.0,,,,,,,,2,control,,,,,,,,,True,True,False,False,False,False,False,False,False,False,True,0.0,1.0,0.0,0.0,1.0,2.0,"{'ko': 1.0, 'na': 2.0, 'te': 3.0, 'si': 4.0, 'hu': 5.0}",5-2,5-2,2.0,0.5205,1.4005,2
15337,63cd840858c4334a66b04517,run1,quiz,False,195.0,,,,195.0,63cc988c2a276a3b63c222e6,63cd82d3d1db04dd3a8b1a7e,$0.5,0.5,17.0,1.0,1.0,5.0,ki,ki,1.0,0.0,{},1674413062119.0,1674413062119.0,2902.0,2902.0,2.061,0.841,1674412935900.0,1674413065021.0,,,,,,,,2,no_count,,,,,,,,,True,False,False,False,False,False,False,False,False,False,True,1.0,0.0,0.0,0.0,1.0,1.0,"{'se': 4.0, 'ki': 1.0, 'na': 2.0, 'to': 3.0, 'hu': 5.0}",1,1,1.0,0.4205,2.4815,2
15339,63cd840958c4334a66b04519,run1,quiz,False,193.0,,,,193.0,63cc988c2a276a3b63c222e6,63cd82d586100bcee1422586,$1.56,1.56,52.0,7.0,8.0,5.0,hu-te,hute,1.0,0.0,{},1674413064120.0,1674413064120.0,1603.0,1603.0,0.284,1.319,1674412829191.0,1674413065723.0,,,,,,,,2,control,,,,,,,,,True,True,False,False,False,False,False,False,False,False,True,0.0,1.0,0.0,0.0,1.0,2.0,"{'ko': 1.0, 'na': 2.0, 'te': 3.0, 'si': 4.0, 'hu': 5.0}",5-3,5-3,2.0,0.32975,0.61375,1
15340,63cd840b58c4334a66b0451b,run1,quiz,False,195.0,,,,195.0,63cc988c2a276a3b63c222e6,63cd82d3d1db04dd3a8b1a7e,$0.53,0.53,18.0,2.0,3.0,5.0,to,to,1.0,0.0,{},1674413066031.0,1674413066031.0,2006.0,2006.0,1.333,0.673,1674412935900.0,1674413068037.0,,,,,,,,2,no_count,,,,,,,,,True,False,False,False,False,False,False,False,False,False,True,1.0,0.0,0.0,0.0,1.0,1.0,"{'se': 4.0, 'ki': 1.0, 'na': 2.0, 'to': 3.0, 'hu': 5.0}",3,3,1.0,0.3365,1.6695,1
15341,63cd840c58c4334a66b0451c,run1,quiz,False,193.0,,,,193.0,63cc988c2a276a3b63c222e6,63cd82d586100bcee1422586,$1.59,1.59,53.0,8.0,9.0,5.0,hu-si,husi,1.0,0.0,{},1674413066728.0,1674413066728.0,1853.0,1853.0,0.372,1.481,1674412829191.0,1674413068581.0,,,,,,,,2,control,,,,,,,,,True,True,False,False,False,False,False,False,False,False,True,0.0,1.0,0.0,0.0,1.0,2.0,"{'ko': 1.0, 'na': 2.0, 'te': 3.0, 'si': 4.0, 'hu': 5.0}",5-4,5-4,2.0,0.37025,0.7422500000000001,0
15343,63cd840f58c4334a66b0451f,run1,quiz,False,195.0,,,,195.0,63cc988c2a276a3b63c222e6,63cd82d3d1db04dd3a8b1a7e,$0.56,0.56,19.0,3.0,5.0,5.0,hu,hu,1.0,0.0,{},1674413069047.0,1674413069047.0,3534.0,3534.0,2.749,0.785,1674412935900.0,1674413072581.0,,,,,,,,2,no_count,,,,,,,,,True,False,False,False,False,False,False,False,False,False,True,1.0,0.0,0.0,0.0,1.0,1.0,"{'se': 4.0, 'ki': 1.0, 'na': 2.0, 'to': 3.0, 'hu': 5.0}",5,5,1.0,0.3925,3.1415,0
15344,63cd841058c4334a66b04521,run1,quiz,False,194.0,,,,194.0,63cc988c2a276a3b63c222e6,63cd82c14591a1ba4aae1fd5,$0.49,0.49,23.0,1.0,7.0,5.0,ki-hu,hiku,0.0,0.0,{},1674413069350.0,1674413069350.0,3493.0,3493.0,2.101,1.392,1674412833937.0,1674413072843.0,,,,,,,,2,no_count,,,,,,,,,True,False,False,False,False,False,False,False,False,False,True,0.0,1.0,0.0,0.0,1.0,2.0,"{'te': 4.0, 'na': 1.0, 'ki': 5.0, 'hu': 2.0, 'so': 3.0}",hiku,5-2,2.0,0.348,2.449,1
15345,63cd841358c4334a66b04522,run1,quiz,False,195.0,,,,195.0,63cc988c2a276a3b63c222e6,63cd82d3d1db04dd3a8b1a7e,$0.59,0.59,20.0,4.0,4.0,5.0,se,se,1.0,0.0,{},1674413073591.0,1674413073591.0,2366.0,2366.0,1.485,0.881,1674412935900.0,1674413075957.0,,,,,,,,2,no_count,,,,,,,,,True,False,False,False,False,False,False,False,False,False,True,1.0,0.0,0.0,0.0,1.0,1.0,"{'se': 4.0, 'ki': 1.0, 'na': 2.0, 'to': 3.0, 'hu': 5.0}",4,4,1.0,0.4405,1.9255,0
15350,63cd841b58c4334a66b0452a,run1,quiz,False,194.0,,,,194.0,63cc988c2a276a3b63c222e6,63cd82c14591a1ba4aae1fd5,$0.49,0.49,24.0,2.0,3.0,5.0,so,te,0.0,0.0,{},1674413080949.0,1674413080949.0,2609.0,2609.0,1.437,1.172,1674412833937.0,1674413083558.0,,,,,,,,2,no_count,,,,,,,,,True,False,False,False,False,False,False,False,False,False,True,1.0,0.0,0.0,0.0,1.0,1.0,"{'te': 4.0, 'na': 1.0, 'ki': 5.0, 'hu': 2.0, 'so': 3.0}",4,3,1.0,0.586,2.023,1
15351,63cd841b58c4334a66b0452b,run1,quiz,False,195.0,,,,195.0,63cc988c2a276a3b63c222e6,63cd82d3d1db04dd3a8b1a7e,$0.62,0.62,21.0,5.0,7.0,5.0,hu-na,huna,1.0,0.0,{},1674413076966.0,1674413076966.0,7407.0,7407.0,2.398,5.009,1674412935900.0,1674413084373.0,,,,,,,,2,no_count,,,,,,,,,True,False,False,False,False,False,False,False,False,False,True,0.0,1.0,0.0,0.0,1.0,2.0,"{'se': 4.0, 'ki': 1.0, 'na': 2.0, 'to': 3.0, 'hu': 5.0}",5-2,5-2,2.0,1.25225,3.65025,0
15352,63cd841e58c4334a66b0452d,run1,quiz,True,193.0,,,,193.0,63cc988c2a276a3b63c222e6,63cd82d586100bcee1422586,$1.65,1.65,55.0,0.0,1.0,5.0,ko,ko,1.0,0.0,{},1674413083751.0,1674413083751.0,2675.0,2675.0,0.807,1.868,1674412829191.0,1674413086426.0,,,,,,,,2,control,,,,,,,,,True,True,False,False,False,False,False,False,False,False,True,1.0,0.0,0.0,0.0,1.0,1.0,"{'ko': 1.0, 'na': 2.0, 'te': 3.0, 'si': 4.0, 'hu': 5.0}",1,1,1.0,0.934,1.741,8
15353,63cd841e58c4334a66b0452e,run1,quiz,False,195.0,,,,195.0,63cc988c2a276a3b63c222e6,63cd82d3d1db04dd3a8b1a7e,$0.65,0.65,22.0,0.0,4.0,5.0,se,se,1.0,0.0,{},1674413085383.0,1674413085383.0,2126.0,2126.0,1.614,0.512,1674412935900.0,1674413087509.0,,,,,,,,2,no_count,,,,,,,,,True,False,False,False,False,False,False,False,False,False,True,1.0,0.0,0.0,0.0,1.0,1.0,"{'se': 4.0, 'ki': 1.0, 'na': 2.0, 'to': 3.0, 'hu': 5.0}",4,4,1.0,0.256,1.87,1
15354,63cd842058c4334a66b0452f,run1,quiz,True,193.0,,,,193.0,63cc988c2a276a3b63c222e6,63cd82d586100bcee1422586,$1.68,1.68,56.0,1.0,2.0,5.0,na,na,1.0,0.0,{},1674413087437.0,1674413087437.0,988.0,988.0,0.329,0.659,1674412829191.0,1674413088425.0,,,,,,,,2,control,,,,,,,,,True,True,False,False,False,False,False,False,False,False,True,1.0,0.0,0.0,0.0,1.0,1.0,"{'ko': 1.0, 'na': 2.0, 'te': 3.0, 'si': 4.0, 'hu': 5.0}",2,2,1.0,0.3295,0.6585000000000001,8
15355,63cd842258c4334a66b04530,run1,quiz,True,193.0,,,,193.0,63cc988c2a276a3b63c222e6,63cd82d586100bcee1422586,$1.71,1.71,57.0,2.0,3.0,5.0,te,te,1.0,0.0,{},1674413089433.0,1674413089433.0,847.0,847.0,0.235,0.612,1674412829191.0,1674413090280.0,,,,,,,,2,control,,,,,,,,,True,True,False,False,False,False,False,False,False,False,True,1.0,0.0,0.0,0.0,1.0,1.0,"{'ko': 1.0, 'na': 2.0, 'te': 3.0, 'si': 4.0, 'hu': 5.0}",3,3,1.0,0.306,0.5409999999999999,7
15356,63cd842258c4334a66b04531,run1,quiz,False,195.0,,,,195.0,63cc988c2a276a3b63c222e6,63cd82d3d1db04dd3a8b1a7e,$0.68,0.68,23.0,1.0,4.0,5.0,se,se,1.0,0.0,{},1674413088514.0,1674413088514.0,2274.0,2274.0,1.778,0.496,1674412935900.0,1674413090788.0,,,,,,,,2,no_count,,,,,,,,,True,False,False,False,False,False,False,False,False,False,True,1.0,0.0,0.0,0.0,1.0,1.0,"{'se': 4.0, 'ki': 1.0, 'na': 2.0, 'to': 3.0, 'hu': 5.0}",4,4,1.0,0.248,2.026,2
15358,63cd842458c4334a66b04534,run1,quiz,True,193.0,,,,193.0,63cc988c2a276a3b63c222e6,63cd82d586100bcee1422586,$1.74,1.74,58.0,3.0,4.0,5.0,si,si,1.0,0.0,{},1674413091287.0,1674413091287.0,934.0,934.0,0.301,0.633,1674412829191.0,1674413092221.0,,,,,,,,2,control,,,,,,,,,True,True,False,False,False,False,False,False,False,False,True,1.0,0.0,0.0,0.0,1.0,1.0,"{'ko': 1.0, 'na': 2.0, 'te': 3.0, 'si': 4.0, 'hu': 5.0}",4,4,1.0,0.3165,0.6174999999999999,6
15359,63cd842558c4334a66b04536,run1,quiz,False,195.0,,,,195.0,63cc988c2a276a3b63c222e6,63cd82d3d1db04dd3a8b1a7e,$0.68,0.68,24.0,2.0,1.0,5.0,ki,se,0.0,0.0,{},1674413091799.0,1674413091799.0,2366.0,2366.0,1.261,1.105,1674412935900.0,1674413094165.0,,,,,,,,2,no_count,,,,,,,,,True,False,False,False,False,False,False,False,False,False,True,1.0,0.0,0.0,0.0,1.0,1.0,"{'se': 4.0, 'ki': 1.0, 'na': 2.0, 'to': 3.0, 'hu': 5.0}",4,1,1.0,0.5525,1.8135,3
15360,63cd842658c4334a66b04537,run1,quiz,True,193.0,,,,193.0,63cc988c2a276a3b63c222e6,63cd82d586100bcee1422586,$1.77,1.77,59.0,4.0,5.0,5.0,hu,hu,1.0,0.0,{},1674413093224.0,1674413093224.0,1536.0,1536.0,0.303,1.233,1674412829191.0,1674413094760.0,,,,,,,,2,control,,,,,,,,,True,True,False,False,False,False,False,False,False,False,True,1.0,0.0,0.0,0.0,1.0,1.0,"{'ko': 1.0, 'na': 2.0, 'te': 3.0, 'si': 4.0, 'hu': 5.0}",5,5,1.0,0.6165,0.9195,5
15363,63cd842958c4334a66b0453b,run1,quiz,True,193.0,,,,193.0,63cc988c2a276a3b63c222e6,63cd82d586100bcee1422586,$1.8,1.8,60.0,5.0,6.0,5.0,hu-ko,huko,1.0,0.0,{},1674413095767.0,1674413095767.0,1651.0,1651.0,0.256,1.395,1674412829191.0,1674413097418.0,,,,,,,,2,control,,,,,,,,,True,True,False,False,False,False,False,False,False,False,True,0.0,1.0,0.0,0.0,1.0,2.0,"{'ko': 1.0, 'na': 2.0, 'te': 3.0, 'si': 4.0, 'hu': 5.0}",5-1,5-1,2.0,0.34875,0.60475,4
15364,63cd842b58c4334a66b0453d,run1,quiz,True,193.0,,,,193.0,63cc988c2a276a3b63c222e6,63cd82d586100bcee1422586,$1.83,1.83,61.0,6.0,7.0,5.0,hu-na,huna,1.0,0.0,{},1674413098423.0,1674413098423.0,1656.0,1656.0,0.32,1.336,1674412829191.0,1674413100079.0,,,,,,,,2,control,,,,,,,,,True,True,False,False,False,False,False,False,False,False,True,0.0,1.0,0.0,0.0,1.0,2.0,"{'ko': 1.0, 'na': 2.0, 'te': 3.0, 'si': 4.0, 'hu': 5.0}",5-2,5-2,2.0,0.334,0.654,3
15365,63cd842c58c4334a66b0453e,run1,quiz,False,195.0,,,,195.0,63cc988c2a276a3b63c222e6,63cd82d3d1db04dd3a8b1a7e,$0.73,0.73,25.0,3.0,7.0,5.0,hu-na,huna,1.0,0.0,{},1674413096823.0,1674413096823.0,3693.0,3693.0,2.629,1.064,1674412935900.0,1674413100516.0,,,,,,,,2,no_count,,,,,,,,,True,False,False,False,False,False,False,False,False,False,True,0.0,1.0,0.0,0.0,1.0,2.0,"{'se': 4.0, 'ki': 1.0, 'na': 2.0, 'to': 3.0, 'hu': 5.0}",5-2,5-2,2.0,0.266,2.895,1
15366,63cd842e58c4334a66b04540,run1,quiz,False,195.0,,,,195.0,63cc988c2a276a3b63c222e6,63cd82d3d1db04dd3a8b1a7e,$0.76,0.76,26.0,4.0,2.0,5.0,na,na,1.0,0.0,{},1674413101527.0,1674413101527.0,1453.0,1453.0,1.028,0.425,1674412935900.0,1674413102980.0,,,,,,,,2,no_count,,,,,,,,,True,False,False,False,False,False,False,False,False,False,True,1.0,0.0,0.0,0.0,1.0,1.0,"{'se': 4.0, 'ki': 1.0, 'na': 2.0, 'to': 3.0, 'hu': 5.0}",2,2,1.0,0.2125,1.2405,2
15367,63cd842e58c4334a66b04541,run1,quiz,False,194.0,,,,194.0,63cc988c2a276a3b63c222e6,63cd82c14591a1ba4aae1fd5,$0.5,0.5,25.0,3.0,2.0,5.0,hu,nu,0.0,0.0,{},1674413096600.0,1674413096600.0,6275.0,6275.0,3.443,2.832,1674412833937.0,1674413102875.0,,,,,,,,2,no_count,,,,,,,,,True,False,False,False,False,False,False,False,False,False,True,1.0,0.0,0.0,0.0,1.0,1.0,"{'te': 4.0, 'na': 1.0, 'ki': 5.0, 'hu': 2.0, 'so': 3.0}",nu,2,1.0,1.416,4.859,1
15368,63cd842f58c4334a66b04542,run1,quiz,True,193.0,,,,193.0,63cc988c2a276a3b63c222e6,63cd82d586100bcee1422586,$1.86,1.86,62.0,7.0,8.0,5.0,hu-te,hute,1.0,0.0,{},1674413101088.0,1674413101088.0,2119.0,2119.0,0.442,1.677,1674412829191.0,1674413103207.0,,,,,,,,2,control,,,,,,,,,True,True,False,False,False,False,False,False,False,False,True,0.0,1.0,0.0,0.0,1.0,2.0,"{'ko': 1.0, 'na': 2.0, 'te': 3.0, 'si': 4.0, 'hu': 5.0}",5-3,5-3,2.0,0.41925,0.8612500000000001,2
15370,63cd843258c4334a66b04546,run1,quiz,True,193.0,,,,193.0,63cc988c2a276a3b63c222e6,63cd82d586100bcee1422586,$1.89,1.89,63.0,8.0,9.0,5.0,hu-si,husi,1.0,0.0,{},1674413104215.0,1674413104215.0,2353.0,2353.0,0.299,2.054,1674412829191.0,1674413106568.0,,,,,,,,2,control,,,,,,,,,True,True,False,False,False,False,False,False,False,False,True,0.0,1.0,0.0,0.0,1.0,2.0,"{'ko': 1.0, 'na': 2.0, 'te': 3.0, 'si': 4.0, 'hu': 5.0}",5-4,5-4,2.0,0.5135,0.8125,1
15371,63cd843458c4334a66b04548,run1,quiz,False,195.0,,,,195.0,63cc988c2a276a3b63c222e6,63cd82d3d1db04dd3a8b1a7e,$0.76,0.76,27.0,5.0,4.0,5.0,se,huse,0.0,0.0,{},1674413103990.0,1674413103990.0,5479.0,5479.0,3.094,2.385,1674412935900.0,1674413109469.0,,,,,,,,2,no_count,,,,,,,,,True,False,False,False,False,False,False,False,False,False,True,1.0,0.0,0.0,0.0,1.0,1.0,"{'se': 4.0, 'ki': 1.0, 'na': 2.0, 'to': 3.0, 'hu': 5.0}",5-4,4,1.0,0.59625,3.69025,3
15372,63cd843458c4334a66b04549,run1,quiz,True,193.0,,,,193.0,63cc988c2a276a3b63c222e6,63cd82d586100bcee1422586,$1.92,1.92,64.0,0.0,10.0,5.0,na-hu,nahu,1.0,0.0,{},1674413107575.0,1674413107575.0,1531.0,1531.0,0.314,1.217,1674412829191.0,1674413109106.0,,,,,,,,2,control,,,,,,,,,True,True,False,False,False,False,False,False,False,False,True,0.0,0.0,1.0,0.0,1.0,3.0,"{'ko': 1.0, 'na': 2.0, 'te': 3.0, 'si': 4.0, 'hu': 5.0}",2-5,2-5,2.0,0.30425,0.61825,0
15375,63cd843a58c4334a66b0454d,run1,quiz,False,194.0,,,,194.0,63cc988c2a276a3b63c222e6,63cd82c14591a1ba4aae1fd5,$0.5,0.5,26.0,4.0,7.0,5.0,ki-hu,hiku,0.0,0.0,{},1674413110869.0,1674413110869.0,4029.0,4029.0,2.658,1.371,1674412833937.0,1674413114898.0,,,,,,,,2,no_count,,,,,,,,,True,False,False,False,False,False,False,False,False,False,True,0.0,1.0,0.0,0.0,1.0,2.0,"{'te': 4.0, 'na': 1.0, 'ki': 5.0, 'hu': 2.0, 'so': 3.0}",hiku,5-2,2.0,0.34275,3.00075,2
15376,63cd843b58c4334a66b0454e,run1,quiz,False,195.0,,,,195.0,63cc988c2a276a3b63c222e6,63cd82d3d1db04dd3a8b1a7e,$0.81,0.81,28.0,6.0,1.0,5.0,ki,ki,1.0,0.0,{},1674413111766.0,1674413111766.0,4654.0,4654.0,4.062,0.592,1674412935900.0,1674413116420.0,,,,,,,,2,no_count,,,,,,,,,True,False,False,False,False,False,False,False,False,False,True,1.0,0.0,0.0,0.0,1.0,1.0,"{'se': 4.0, 'ki': 1.0, 'na': 2.0, 'to': 3.0, 'hu': 5.0}",1,1,1.0,0.296,4.3580000000000005,4
15377,63cd843f58c4334a66b04550,run1,quiz,False,195.0,,,,195.0,63cc988c2a276a3b63c222e6,63cd82d3d1db04dd3a8b1a7e,$0.84,0.84,29.0,0.0,3.0,5.0,to,to,1.0,0.0,{},1674413117430.0,1674413117430.0,2831.0,2831.0,2.158,0.673,1674412935900.0,1674413120261.0,,,,,,,,2,no_count,,,,,,,,,True,False,False,False,False,False,False,False,False,False,True,1.0,0.0,0.0,0.0,1.0,1.0,"{'se': 4.0, 'ki': 1.0, 'na': 2.0, 'to': 3.0, 'hu': 5.0}",3,3,1.0,0.3365,2.4945,2
15378,63cd844258c4334a66b04552,run1,quiz,False,195.0,,,,195.0,63cc988c2a276a3b63c222e6,63cd82d3d1db04dd3a8b1a7e,$0.87,0.87,30.0,1.0,5.0,5.0,hu,hu,1.0,0.0,{},1674413121271.0,1674413121271.0,2013.0,2013.0,1.428,0.585,1674412935900.0,1674413123284.0,,,,,,,,2,no_count,,,,,,,,,True,False,False,False,False,False,False,False,False,False,True,1.0,0.0,0.0,0.0,1.0,1.0,"{'se': 4.0, 'ki': 1.0, 'na': 2.0, 'to': 3.0, 'hu': 5.0}",5,5,1.0,0.2925,1.7205,1
15380,63cd844558c4334a66b04555,run1,quiz,False,195.0,,,,195.0,63cc988c2a276a3b63c222e6,63cd82d3d1db04dd3a8b1a7e,$0.87,0.87,31.0,2.0,5.0,5.0,hu,to,0.0,0.0,{},1674413124300.0,1674413124300.0,2193.0,2193.0,1.615,0.578,1674412935900.0,1674413126493.0,,,,,,,,2,no_count,,,,,,,,,True,False,False,False,False,False,False,False,False,False,True,1.0,0.0,0.0,0.0,1.0,1.0,"{'se': 4.0, 'ki': 1.0, 'na': 2.0, 'to': 3.0, 'hu': 5.0}",3,5,1.0,0.289,1.904,2
15383,63cd844a58c4334a66b0455a,run1,quiz,False,194.0,,,,194.0,63cc988c2a276a3b63c222e6,63cd82c14591a1ba4aae1fd5,$0.53,0.53,27.0,5.0,4.0,5.0,te,te,1.0,0.0,{},1674413127827.0,1674413127827.0,2723.0,2723.0,1.804,0.919,1674412833937.0,1674413130550.0,,,,,,,,2,no_count,,,,,,,,,True,False,False,False,False,False,False,False,False,False,True,1.0,0.0,0.0,0.0,1.0,1.0,"{'te': 4.0, 'na': 1.0, 'ki': 5.0, 'hu': 2.0, 'so': 3.0}",4,4,1.0,0.4595,2.2635,3
15384,63cd844c58c4334a66b0455b,run1,quiz,False,195.0,,,,195.0,63cc988c2a276a3b63c222e6,63cd82d3d1db04dd3a8b1a7e,$0.92,0.92,32.0,3.0,4.0,5.0,se,se,1.0,0.0,{},1674413131134.0,1674413131134.0,2167.0,2167.0,1.661,0.506,1674412935900.0,1674413133301.0,,,,,,,,2,no_count,,,,,,,,,True,False,False,False,False,False,False,False,False,False,True,1.0,0.0,0.0,0.0,1.0,1.0,"{'se': 4.0, 'ki': 1.0, 'na': 2.0, 'to': 3.0, 'hu': 5.0}",4,4,1.0,0.253,1.9140000000000001,4
15385,63cd844f58c4334a66b0455e,run1,quiz,False,195.0,,,,195.0,63cc988c2a276a3b63c222e6,63cd82d3d1db04dd3a8b1a7e,$0.95,0.95,33.0,4.0,4.0,5.0,se,se,1.0,0.0,{},1674413134310.0,1674413134310.0,1431.0,1431.0,0.934,0.497,1674412935900.0,1674413135741.0,,,,,,,,2,no_count,,,,,,,,,True,False,False,False,False,False,False,False,False,False,True,1.0,0.0,0.0,0.0,1.0,1.0,"{'se': 4.0, 'ki': 1.0, 'na': 2.0, 'to': 3.0, 'hu': 5.0}",4,4,1.0,0.2485,1.1825,5
15386,63cd844f58c4334a66b0455f,run1,quiz,False,194.0,,,,194.0,63cc988c2a276a3b63c222e6,63cd82c14591a1ba4aae1fd5,$0.56,0.56,28.0,0.0,7.0,5.0,ki-hu,kihu,1.0,0.0,{},1674413131560.0,1674413131560.0,3742.0,3742.0,2.529,1.213,1674412833937.0,1674413135302.0,,,,,,,,2,no_count,,,,,,,,,True,False,False,False,False,False,False,False,False,False,True,0.0,1.0,0.0,0.0,1.0,2.0,"{'te': 4.0, 'na': 1.0, 'ki': 5.0, 'hu': 2.0, 'so': 3.0}",5-2,5-2,2.0,0.30325,2.83225,3
15387,63cd845358c4334a66b04561,run1,quiz,False,195.0,,,,195.0,63cc988c2a276a3b63c222e6,63cd82d3d1db04dd3a8b1a7e,$0.98,0.98,34.0,5.0,6.0,5.0,hu-ki,huki,1.0,0.0,{},1674413136750.0,1674413136750.0,3646.0,3646.0,1.965,1.681,1674412935900.0,1674413140396.0,,,,,,,,2,no_count,,,,,,,,,True,False,False,False,False,False,False,False,False,False,True,0.0,1.0,0.0,0.0,1.0,2.0,"{'se': 4.0, 'ki': 1.0, 'na': 2.0, 'to': 3.0, 'hu': 5.0}",5-1,5-1,2.0,0.42025,2.38525,0
15388,63cd845758c4334a66b04563,run1,quiz,False,195.0,,,,195.0,63cc988c2a276a3b63c222e6,63cd82d3d1db04dd3a8b1a7e,$1.01,1.01,35.0,6.0,6.0,5.0,hu-ki,huki,1.0,0.0,{},1674413141419.0,1674413141419.0,2410.0,2410.0,1.065,1.345,1674412935900.0,1674413143829.0,,,,,,,,2,no_count,,,,,,,,,True,False,False,False,False,False,False,False,False,False,True,0.0,1.0,0.0,0.0,1.0,2.0,"{'se': 4.0, 'ki': 1.0, 'na': 2.0, 'to': 3.0, 'hu': 5.0}",5-1,5-1,2.0,0.33625,1.4012499999999999,1
15389,63cd845758c4334a66b04564,run1,quiz,False,194.0,,,,194.0,63cc988c2a276a3b63c222e6,63cd82c14591a1ba4aae1fd5,$0.56,0.56,29.0,1.0,6.0,5.0,ki-na,hiso,0.0,0.0,{},1674413136315.0,1674413136315.0,7491.0,7491.0,1.874,5.617,1674412833937.0,1674413143806.0,,,,,,,,2,no_count,,,,,,,,,True,False,False,False,False,False,False,False,False,False,True,0.0,1.0,0.0,0.0,1.0,2.0,"{'te': 4.0, 'na': 1.0, 'ki': 5.0, 'hu': 2.0, 'so': 3.0}",hi-3,5-1,2.0,1.40425,3.27825,0
15390,63cd845a58c4334a66b04567,run1,quiz,False,195.0,,,,195.0,63cc988c2a276a3b63c222e6,63cd82d3d1db04dd3a8b1a7e,$1.04,1.04,36.0,7.0,8.0,5.0,hu-to,huto,1.0,0.0,{},1674413144842.0,1674413144842.0,2490.0,2490.0,1.426,1.064,1674412935900.0,1674413147332.0,,,,,,,,2,no_count,,,,,,,,,True,False,False,False,False,False,False,False,False,False,True,0.0,1.0,0.0,0.0,1.0,2.0,"{'se': 4.0, 'ki': 1.0, 'na': 2.0, 'to': 3.0, 'hu': 5.0}",5-3,5-3,2.0,0.266,1.692,1
15391,63cd845d58c4334a66b04569,run1,quiz,False,195.0,,,,195.0,63cc988c2a276a3b63c222e6,63cd82d3d1db04dd3a8b1a7e,$1.07,1.07,37.0,0.0,3.0,5.0,to,to,1.0,0.0,{},1674413148342.0,1674413148342.0,2071.0,2071.0,1.59,0.481,1674412935900.0,1674413150413.0,,,,,,,,2,no_count,,,,,,,,,True,False,False,False,False,False,False,False,False,False,True,1.0,0.0,0.0,0.0,1.0,1.0,"{'se': 4.0, 'ki': 1.0, 'na': 2.0, 'to': 3.0, 'hu': 5.0}",3,3,1.0,0.2405,1.8305,3
15394,63cd846358c4334a66b0456c,run1,quiz,False,195.0,,,,195.0,63cc988c2a276a3b63c222e6,63cd82d3d1db04dd3a8b1a7e,$1.1,1.1,38.0,1.0,5.0,5.0,hu,hu,1.0,0.0,{},1674413151423.0,1674413151423.0,5102.0,5102.0,4.597,0.505,1674412935900.0,1674413156525.0,,,,,,,,2,no_count,,,,,,,,,True,False,False,False,False,False,False,False,False,False,True,1.0,0.0,0.0,0.0,1.0,1.0,"{'se': 4.0, 'ki': 1.0, 'na': 2.0, 'to': 3.0, 'hu': 5.0}",5,5,1.0,0.2525,4.849500000000001,3
15395,63cd846758c4334a66b0456d,run1,quiz,False,194.0,,,,194.0,63cc988c2a276a3b63c222e6,63cd82c14591a1ba4aae1fd5,$0.56,0.56,30.0,2.0,9.0,5.0,ki-te,hisu,0.0,0.0,{},1674413155642.0,1674413155642.0,3288.0,3288.0,1.883,1.405,1674412833937.0,1674413158930.0,,,,,,,,2,no_count,,,,,,,,,True,False,False,False,False,False,False,False,False,False,True,0.0,1.0,0.0,0.0,1.0,2.0,"{'te': 4.0, 'na': 1.0, 'ki': 5.0, 'hu': 2.0, 'so': 3.0}",hisu,5-4,2.0,0.35125,2.23425,0
15396,63cd846858c4334a66b0456e,run1,quiz,False,195.0,,,,195.0,63cc988c2a276a3b63c222e6,63cd82d3d1db04dd3a8b1a7e,$1.13,1.13,39.0,2.0,2.0,5.0,na,na,1.0,0.0,{},1674413157535.0,1674413157535.0,3174.0,3174.0,2.829,0.345,1674412935900.0,1674413160709.0,,,,,,,,2,no_count,,,,,,,,,True,False,False,False,False,False,False,False,False,False,True,1.0,0.0,0.0,0.0,1.0,1.0,"{'se': 4.0, 'ki': 1.0, 'na': 2.0, 'to': 3.0, 'hu': 5.0}",2,2,1.0,0.1725,3.0015,3
15398,63cd846b58c4334a66b04570,run1,quiz,False,195.0,,,,195.0,63cc988c2a276a3b63c222e6,63cd82d3d1db04dd3a8b1a7e,$1.16,1.16,40.0,3.0,1.0,5.0,ki,ki,1.0,0.0,{},1674413161718.0,1674413161718.0,2079.0,2079.0,1.414,0.665,1674412935900.0,1674413163797.0,,,,,,,,2,no_count,,,,,,,,,True,False,False,False,False,False,False,False,False,False,True,1.0,0.0,0.0,0.0,1.0,1.0,"{'se': 4.0, 'ki': 1.0, 'na': 2.0, 'to': 3.0, 'hu': 5.0}",1,1,1.0,0.3325,1.7465,5
15399,63cd846d58c4334a66b04571,run1,quiz,False,195.0,,,,195.0,63cc988c2a276a3b63c222e6,63cd82d3d1db04dd3a8b1a7e,$1.19,1.19,41.0,4.0,2.0,5.0,na,na,1.0,0.0,{},1674413164807.0,1674413164807.0,1494.0,1494.0,1.101,0.393,1674412935900.0,1674413166301.0,,,,,,,,2,no_count,,,,,,,,,True,False,False,False,False,False,False,False,False,False,True,1.0,0.0,0.0,0.0,1.0,1.0,"{'se': 4.0, 'ki': 1.0, 'na': 2.0, 'to': 3.0, 'hu': 5.0}",2,2,1.0,0.1965,1.2974999999999999,4
15401,63cd847058c4334a66b04573,run1,quiz,False,195.0,,,,195.0,63cc988c2a276a3b63c222e6,63cd82d3d1db04dd3a8b1a7e,$1.22,1.22,42.0,5.0,2.0,5.0,na,na,1.0,0.0,{},1674413167311.0,1674413167311.0,1558.0,1558.0,1.165,0.393,1674412935900.0,1674413168869.0,,,,,,,,2,no_count,,,,,,,,,True,False,False,False,False,False,False,False,False,False,True,1.0,0.0,0.0,0.0,1.0,1.0,"{'se': 4.0, 'ki': 1.0, 'na': 2.0, 'to': 3.0, 'hu': 5.0}",2,2,1.0,0.1965,1.3615,5
15402,63cd847158c4334a66b04574,run1,quiz,False,194.0,,,,194.0,63cc988c2a276a3b63c222e6,63cd82c14591a1ba4aae1fd5,$0.56,0.56,31.0,3.0,2.0,5.0,hu,nu,0.0,0.0,{},1674413167061.0,1674413167061.0,2707.0,2707.0,1.875,0.832,1674412833937.0,1674413169768.0,,,,,,,,2,no_count,,,,,,,,,True,False,False,False,False,False,False,False,False,False,True,1.0,0.0,0.0,0.0,1.0,1.0,"{'te': 4.0, 'na': 1.0, 'ki': 5.0, 'hu': 2.0, 'so': 3.0}",nu,2,1.0,0.416,2.291,2
15403,63cd847458c4334a66b04575,run1,quiz,False,195.0,,,,195.0,63cc988c2a276a3b63c222e6,63cd82d3d1db04dd3a8b1a7e,$1.25,1.25,43.0,6.0,5.0,5.0,hu,hu,1.0,0.0,{},1674413169879.0,1674413169879.0,2822.0,2822.0,1.757,1.065,1674412935900.0,1674413172701.0,,,,,,,,2,no_count,,,,,,,,,True,False,False,False,False,False,False,False,False,False,True,1.0,0.0,0.0,0.0,1.0,1.0,"{'se': 4.0, 'ki': 1.0, 'na': 2.0, 'to': 3.0, 'hu': 5.0}",5,5,1.0,0.5325,2.2895,4
15405,63cd847658c4334a66b04577,run1,quiz,False,195.0,,,,195.0,63cc988c2a276a3b63c222e6,63cd82d3d1db04dd3a8b1a7e,$1.28,1.28,44.0,7.0,2.0,5.0,na,na,1.0,0.0,{},1674413173711.0,1674413173711.0,1287.0,1287.0,0.91,0.377,1674412935900.0,1674413174998.0,,,,,,,,2,no_count,,,,,,,,,True,False,False,False,False,False,False,False,False,False,True,1.0,0.0,0.0,0.0,1.0,1.0,"{'se': 4.0, 'ki': 1.0, 'na': 2.0, 'to': 3.0, 'hu': 5.0}",2,2,1.0,0.1885,1.0985,6
15407,63cd847958c4334a66b04579,run1,quiz,False,195.0,,,,195.0,63cc988c2a276a3b63c222e6,63cd82d3d1db04dd3a8b1a7e,$1.31,1.31,45.0,8.0,6.0,5.0,hu-ki,huki,1.0,0.0,{},1674413176008.0,1674413176008.0,2429.0,2429.0,1.477,0.952,1674412935900.0,1674413178437.0,,,,,,,,2,no_count,,,,,,,,,True,False,False,False,False,False,False,False,False,False,True,0.0,1.0,0.0,0.0,1.0,2.0,"{'se': 4.0, 'ki': 1.0, 'na': 2.0, 'to': 3.0, 'hu': 5.0}",5-1,5-1,2.0,0.238,1.715,2
15408,63cd847a58c4334a66b0457a,run1,quiz,False,194.0,,,,194.0,63cc988c2a276a3b63c222e6,63cd82c14591a1ba4aae1fd5,$0.59,0.59,32.0,4.0,4.0,5.0,te,te,1.0,0.0,{},1674413176544.0,1674413176544.0,1976.0,1976.0,1.348,0.628,1674412833937.0,1674413178520.0,,,,,,,,2,no_count,,,,,,,,,True,False,False,False,False,False,False,False,False,False,True,1.0,0.0,0.0,0.0,1.0,1.0,"{'te': 4.0, 'na': 1.0, 'ki': 5.0, 'hu': 2.0, 'so': 3.0}",4,4,1.0,0.314,1.6620000000000001,4
15409,63cd847d58c4334a66b0457b,run1,quiz,False,195.0,,,,195.0,63cc988c2a276a3b63c222e6,63cd82d3d1db04dd3a8b1a7e,$1.34,1.34,46.0,0.0,9.0,5.0,hu-se,huse,1.0,0.0,{},1674413179447.0,1674413179447.0,2750.0,2750.0,1.709,1.041,1674412935900.0,1674413182197.0,,,,,,,,2,no_count,,,,,,,,,True,False,False,False,False,False,False,False,False,False,True,0.0,1.0,0.0,0.0,1.0,2.0,"{'se': 4.0, 'ki': 1.0, 'na': 2.0, 'to': 3.0, 'hu': 5.0}",5-4,5-4,2.0,0.26025,1.9692500000000002,1
15410,63cd847d58c4334a66b0457c,run1,quiz,False,194.0,,,,194.0,63cc988c2a276a3b63c222e6,63cd82c14591a1ba4aae1fd5,$0.62,0.62,33.0,5.0,1.0,5.0,na,na,1.0,0.0,{},1674413179536.0,1674413179536.0,1988.0,1988.0,1.071,0.917,1674412833937.0,1674413181524.0,,,,,,,,2,no_count,,,,,,,,,True,False,False,False,False,False,False,False,False,False,True,1.0,0.0,0.0,0.0,1.0,1.0,"{'te': 4.0, 'na': 1.0, 'ki': 5.0, 'hu': 2.0, 'so': 3.0}",1,1,1.0,0.4585,1.5295,3
15411,63cd848258c4334a66b0457d,run1,quiz,False,195.0,,,,195.0,63cc988c2a276a3b63c222e6,63cd82d3d1db04dd3a8b1a7e,$1.37,1.37,47.0,1.0,7.0,5.0,hu-na,huna,1.0,0.0,{},1674413183208.0,1674413183208.0,4149.0,4149.0,1.004,3.145,1674412935900.0,1674413187357.0,,,,,,,,2,no_count,,,,,,,,,True,False,False,False,False,False,False,False,False,False,True,0.0,1.0,0.0,0.0,1.0,2.0,"{'se': 4.0, 'ki': 1.0, 'na': 2.0, 'to': 3.0, 'hu': 5.0}",5-2,5-2,2.0,0.78625,1.79025,2
15412,63cd848658c4334a66b0457e,run1,quiz,False,195.0,,,,195.0,63cc988c2a276a3b63c222e6,63cd82d3d1db04dd3a8b1a7e,$1.4,1.4,48.0,2.0,5.0,5.0,hu,hu,1.0,0.0,{},1674413188367.0,1674413188367.0,2302.0,2302.0,1.333,0.969,1674412935900.0,1674413190669.0,,,,,,,,2,no_count,,,,,,,,,True,False,False,False,False,False,False,False,False,False,True,1.0,0.0,0.0,0.0,1.0,1.0,"{'se': 4.0, 'ki': 1.0, 'na': 2.0, 'to': 3.0, 'hu': 5.0}",5,5,1.0,0.4845,1.8175,5
15413,63cd848958c4334a66b0457f,run1,quiz,False,194.0,,,,194.0,63cc988c2a276a3b63c222e6,63cd82c14591a1ba4aae1fd5,$0.62,0.62,34.0,6.0,6.0,5.0,ki-na,hisu,0.0,0.0,{},1674413182532.0,1674413182532.0,10593.0,10593.0,4.239,6.354,1674412833937.0,1674413193125.0,,,,,,,,2,no_count,,,,,,,,,True,False,False,False,False,False,False,False,False,False,True,0.0,1.0,0.0,0.0,1.0,2.0,"{'te': 4.0, 'na': 1.0, 'ki': 5.0, 'hu': 2.0, 'so': 3.0}",hisu,5-1,2.0,1.5885,5.8275,1
15418,63cd849858c4334a66b04585,run1,quiz,False,195.0,,,,195.0,63cc988c2a276a3b63c222e6,63cd82d3d1db04dd3a8b1a7e,$1.46,1.46,50.0,4.0,1.0,5.0,ki,ki,1.0,0.0,{},1674413206383.0,1674413206383.0,2862.0,2862.0,1.949,0.913,1674412935900.0,1674413209245.0,,,,,,,,2,no_count,,,,,,,,,True,False,False,False,False,False,False,False,False,False,True,1.0,0.0,0.0,0.0,1.0,1.0,"{'se': 4.0, 'ki': 1.0, 'na': 2.0, 'to': 3.0, 'hu': 5.0}",1,1,1.0,0.4565,2.4055,6
15419,63cd849858c4334a66b04586,run1,quiz,False,194.0,,,,194.0,63cc988c2a276a3b63c222e6,63cd82c14591a1ba4aae1fd5,$0.62,0.62,35.0,0.0,6.0,5.0,ki-na,kini,0.0,0.0,{},1674413203395.0,1674413203395.0,5201.0,5201.0,1.206,3.995,1674412833937.0,1674413208596.0,,,,,,,,2,no_count,,,,,,,,,True,False,False,False,False,False,False,False,False,False,True,0.0,1.0,0.0,0.0,1.0,2.0,"{'te': 4.0, 'na': 1.0, 'ki': 5.0, 'hu': 2.0, 'so': 3.0}",5-ni,5-1,2.0,0.99875,2.2047499999999998,2
15421,63cd849c58c4334a66b04588,run1,quiz,False,195.0,,,,195.0,63cc988c2a276a3b63c222e6,63cd82d3d1db04dd3a8b1a7e,$1.49,1.49,51.0,5.0,2.0,5.0,na,na,1.0,0.0,{},1674413210256.0,1674413210256.0,2461.0,2461.0,2.052,0.409,1674412935900.0,1674413212717.0,,,,,,,,2,no_count,,,,,,,,,True,False,False,False,False,False,False,False,False,False,True,1.0,0.0,0.0,0.0,1.0,1.0,"{'se': 4.0, 'ki': 1.0, 'na': 2.0, 'to': 3.0, 'hu': 5.0}",2,2,1.0,0.2045,2.2565,7
15426,63cd84a358c4334a66b0458d,run1,quiz,False,194.0,,,,194.0,63cc988c2a276a3b63c222e6,63cd82c14591a1ba4aae1fd5,$0.62,0.62,36.0,1.0,2.0,5.0,hu,nu,0.0,0.0,{},1674413216253.0,1674413216253.0,3523.0,3523.0,2.856,0.667,1674412833937.0,1674413219776.0,,,,,,,,2,no_count,,,,,,,,,True,False,False,False,False,False,False,False,False,False,True,1.0,0.0,0.0,0.0,1.0,1.0,"{'te': 4.0, 'na': 1.0, 'ki': 5.0, 'hu': 2.0, 'so': 3.0}",nu,2,1.0,0.3335,3.1895,3
15432,63cd84a958c4334a66b04593,run1,quiz,False,195.0,,,,195.0,63cc988c2a276a3b63c222e6,63cd82d3d1db04dd3a8b1a7e,$1.52,1.52,52.0,6.0,6.0,5.0,hu-ki,huki,1.0,0.0,{},1674413213731.0,1674413213731.0,12546.0,12546.0,6.825,5.721,1674412935900.0,1674413226277.0,,,,,,,,2,no_count,,,,,,,,,True,False,False,False,False,False,False,False,False,False,True,0.0,1.0,0.0,0.0,1.0,2.0,"{'se': 4.0, 'ki': 1.0, 'na': 2.0, 'to': 3.0, 'hu': 5.0}",5-1,5-1,2.0,1.43025,8.25525,3
15439,63cd84b458c4334a66b0459a,run1,quiz,False,194.0,,,,194.0,63cc988c2a276a3b63c222e6,63cd82c14591a1ba4aae1fd5,$0.66,0.66,37.0,2.0,4.0,5.0,te,te,1.0,0.0,{},1674413234569.0,1674413234569.0,1869.0,1869.0,0.957,0.912,1674412833937.0,1674413236438.0,,,,,,,,2,no_count,,,,,,,,,True,False,False,False,False,False,False,False,False,False,True,1.0,0.0,0.0,0.0,1.0,1.0,"{'te': 4.0, 'na': 1.0, 'ki': 5.0, 'hu': 2.0, 'so': 3.0}",4,4,1.0,0.456,1.413,5
15441,63cd84b558c4334a66b0459c,run1,quiz,False,195.0,,,,195.0,63cc988c2a276a3b63c222e6,63cd82d3d1db04dd3a8b1a7e,$1.55,1.55,53.0,7.0,3.0,5.0,to,to,1.0,0.0,{},1674413227287.0,1674413227287.0,10910.0,10910.0,1.781,9.129,1674412935900.0,1674413238197.0,,,,,,,,2,no_count,,,,,,,,,True,False,False,False,False,False,False,False,False,False,True,1.0,0.0,0.0,0.0,1.0,1.0,"{'se': 4.0, 'ki': 1.0, 'na': 2.0, 'to': 3.0, 'hu': 5.0}",3,3,1.0,4.5645,6.3454999999999995,4
15443,63cd84b758c4334a66b0459e,run1,quiz,False,194.0,,,,194.0,63cc988c2a276a3b63c222e6,63cd82c14591a1ba4aae1fd5,$0.69,0.69,38.0,3.0,1.0,5.0,na,na,1.0,0.0,{},1674413237447.0,1674413237447.0,2376.0,2376.0,1.143,1.233,1674412833937.0,1674413239823.0,,,,,,,,2,no_count,,,,,,,,,True,False,False,False,False,False,False,False,False,False,True,1.0,0.0,0.0,0.0,1.0,1.0,"{'te': 4.0, 'na': 1.0, 'ki': 5.0, 'hu': 2.0, 'so': 3.0}",1,1,1.0,0.6165,1.7595,4
15445,63cd84b958c4334a66b045a0,run1,quiz,False,195.0,,,,195.0,63cc988c2a276a3b63c222e6,63cd82d3d1db04dd3a8b1a7e,$1.58,1.58,54.0,8.0,3.0,5.0,to,to,1.0,0.0,{},1674413239207.0,1674413239207.0,3199.0,3199.0,2.389,0.81,1674412935900.0,1674413242406.0,,,,,,,,2,no_count,,,,,,,,,True,False,False,False,False,False,False,False,False,False,True,1.0,0.0,0.0,0.0,1.0,1.0,"{'se': 4.0, 'ki': 1.0, 'na': 2.0, 'to': 3.0, 'hu': 5.0}",3,3,1.0,0.405,2.7939999999999996,5
15448,63cd84bb58c4334a66b045a3,run1,quiz,False,194.0,,,,194.0,63cc988c2a276a3b63c222e6,63cd82c14591a1ba4aae1fd5,$0.72,0.72,39.0,4.0,2.0,5.0,hu,hu,1.0,0.0,{},1674413240829.0,1674413240829.0,2731.0,2731.0,1.948,0.783,1674412833937.0,1674413243560.0,,,,,,,,2,no_count,,,,,,,,,True,False,False,False,False,False,False,False,False,False,True,1.0,0.0,0.0,0.0,1.0,1.0,"{'te': 4.0, 'na': 1.0, 'ki': 5.0, 'hu': 2.0, 'so': 3.0}",2,2,1.0,0.3915,2.3395,4
15451,63cd84be58c4334a66b045a6,run1,quiz,False,194.0,,,,194.0,63cc988c2a276a3b63c222e6,63cd82c14591a1ba4aae1fd5,$0.75,0.75,40.0,5.0,1.0,5.0,na,na,1.0,0.0,{},1674413244565.0,1674413244565.0,1943.0,1943.0,0.813,1.13,1674412833937.0,1674413246508.0,,,,,,,,2,no_count,,,,,,,,,True,False,False,False,False,False,False,False,False,False,True,1.0,0.0,0.0,0.0,1.0,1.0,"{'te': 4.0, 'na': 1.0, 'ki': 5.0, 'hu': 2.0, 'so': 3.0}",1,1,1.0,0.565,1.378,5
15453,63cd84c058c4334a66b045a8,run1,quiz,False,195.0,,,,195.0,63cc988c2a276a3b63c222e6,63cd82d3d1db04dd3a8b1a7e,$1.61,1.61,55.0,-1.0,6.0,5.0,hu-ki,huki,1.0,0.0,{},1674413243415.0,1674413243415.0,5566.0,5566.0,1.229,4.337,1674412935900.0,1674413248981.0,,,,,,,,2,no_count,,,,,,,,,True,False,False,False,False,False,False,False,False,False,True,0.0,1.0,0.0,0.0,1.0,2.0,"{'se': 4.0, 'ki': 1.0, 'na': 2.0, 'to': 3.0, 'hu': 5.0}",5-1,5-1,2.0,1.08425,2.31325,4
15455,63cd84c258c4334a66b045aa,run1,quiz,False,194.0,,,,194.0,63cc988c2a276a3b63c222e6,63cd82c14591a1ba4aae1fd5,$0.78,0.78,41.0,6.0,2.0,5.0,hu,hu,1.0,0.0,{},1674413247520.0,1674413247520.0,2422.0,2422.0,1.569,0.853,1674412833937.0,1674413249942.0,,,,,,,,2,no_count,,,,,,,,,True,False,False,False,False,False,False,False,False,False,True,1.0,0.0,0.0,0.0,1.0,1.0,"{'te': 4.0, 'na': 1.0, 'ki': 5.0, 'hu': 2.0, 'so': 3.0}",2,2,1.0,0.4265,1.9954999999999998,5
15456,63cd84c358c4334a66b045ab,run1,quiz,True,195.0,,,,195.0,63cc988c2a276a3b63c222e6,63cd82d3d1db04dd3a8b1a7e,$1.64,1.64,56.0,0.0,10.0,5.0,na-hu,nahu,1.0,0.0,{},1674413249990.0,1674413249990.0,2183.0,2183.0,1.126,1.057,1674412935900.0,1674413252173.0,,,,,,,,2,no_count,,,,,,,,,True,False,False,False,False,False,False,False,False,False,True,0.0,0.0,1.0,0.0,1.0,3.0,"{'se': 4.0, 'ki': 1.0, 'na': 2.0, 'to': 3.0, 'hu': 5.0}",2-5,2-5,2.0,0.26425,1.39025,0
15460,63cd84c758c4334a66b045af,run1,quiz,True,195.0,,,,195.0,63cc988c2a276a3b63c222e6,63cd82d3d1db04dd3a8b1a7e,$1.67,1.67,57.0,1.0,8.0,5.0,hu-to,huto,1.0,0.0,{},1674413253182.0,1674413253182.0,2719.0,2719.0,1.454,1.265,1674412935900.0,1674413255901.0,,,,,,,,2,no_count,,,,,,,,,True,False,False,False,False,False,False,False,False,False,True,0.0,1.0,0.0,0.0,1.0,2.0,"{'se': 4.0, 'ki': 1.0, 'na': 2.0, 'to': 3.0, 'hu': 5.0}",5-3,5-3,2.0,0.31625,1.7702499999999999,2
15462,63cd84c958c4334a66b045b1,run1,quiz,False,194.0,,,,194.0,63cc988c2a276a3b63c222e6,63cd82c14591a1ba4aae1fd5,$0.78,0.78,42.0,7.0,3.0,5.0,so,hi,0.0,0.0,{},1674413250951.0,1674413250951.0,6291.0,6291.0,5.523,0.768,1674412833937.0,1674413257242.0,,,,,,,,2,no_count,,,,,,,,,True,False,False,False,False,False,False,False,False,False,True,1.0,0.0,0.0,0.0,1.0,1.0,"{'te': 4.0, 'na': 1.0, 'ki': 5.0, 'hu': 2.0, 'so': 3.0}",hi,3,1.0,0.384,5.907,2
15464,63cd84ca58c4334a66b045b3,run1,quiz,True,195.0,,,,195.0,63cc988c2a276a3b63c222e6,63cd82d3d1db04dd3a8b1a7e,$1.7,1.7,58.0,2.0,1.0,5.0,ki,ki,1.0,0.0,{},1674413256911.0,1674413256911.0,2558.0,2558.0,1.869,0.689,1674412935900.0,1674413259469.0,,,,,,,,2,no_count,,,,,,,,,True,False,False,False,False,False,False,False,False,False,True,1.0,0.0,0.0,0.0,1.0,1.0,"{'se': 4.0, 'ki': 1.0, 'na': 2.0, 'to': 3.0, 'hu': 5.0}",1,1,1.0,0.3445,2.2135,7
15466,63cd84cd58c4334a66b045b5,run1,quiz,True,195.0,,,,195.0,63cc988c2a276a3b63c222e6,63cd82d3d1db04dd3a8b1a7e,$1.73,1.73,59.0,3.0,4.0,5.0,se,se,1.0,0.0,{},1674413260479.0,1674413260479.0,1646.0,1646.0,1.045,0.601,1674412935900.0,1674413262125.0,,,,,,,,2,no_count,,,,,,,,,True,False,False,False,False,False,False,False,False,False,True,1.0,0.0,0.0,0.0,1.0,1.0,"{'se': 4.0, 'ki': 1.0, 'na': 2.0, 'to': 3.0, 'hu': 5.0}",4,4,1.0,0.3005,1.3455,6
15469,63cd84d158c4334a66b045b8,run1,quiz,True,195.0,,,,195.0,63cc988c2a276a3b63c222e6,63cd82d3d1db04dd3a8b1a7e,$1.76,1.76,60.0,4.0,1.0,5.0,ki,ki,1.0,0.0,{},1674413263134.0,1674413263134.0,2911.0,2911.0,2.191,0.72,1674412935900.0,1674413266045.0,,,,,,,,2,no_count,,,,,,,,,True,False,False,False,False,False,False,False,False,False,True,1.0,0.0,0.0,0.0,1.0,1.0,"{'se': 4.0, 'ki': 1.0, 'na': 2.0, 'to': 3.0, 'hu': 5.0}",1,1,1.0,0.36,2.5509999999999997,8
15474,63cd84d458c4334a66b045bd,run1,quiz,True,195.0,,,,195.0,63cc988c2a276a3b63c222e6,63cd82d3d1db04dd3a8b1a7e,$1.79,1.79,61.0,5.0,3.0,5.0,to,to,1.0,0.0,{},1674413267055.0,1674413267055.0,2182.0,2182.0,1.549,0.633,1674412935900.0,1674413269237.0,,,,,,,,2,no_count,,,,,,,,,True,False,False,False,False,False,False,False,False,False,True,1.0,0.0,0.0,0.0,1.0,1.0,"{'se': 4.0, 'ki': 1.0, 'na': 2.0, 'to': 3.0, 'hu': 5.0}",3,3,1.0,0.3165,1.8655,6
15477,63cd84d858c4334a66b045c0,run1,quiz,False,194.0,,,,194.0,63cc988c2a276a3b63c222e6,63cd82c14591a1ba4aae1fd5,$0.78,0.78,43.0,0.0,10.0,5.0,hu-ki,hikin,0.0,0.0,{},1674413268912.0,1674413268912.0,3586.0,3586.0,1.767,1.819,1674412833937.0,1674413272498.0,,,,,,,,2,no_count,,,,,,,,,True,False,False,False,False,False,False,False,False,False,True,0.0,0.0,1.0,0.0,1.0,3.0,"{'te': 4.0, 'na': 1.0, 'ki': 5.0, 'hu': 2.0, 'so': 3.0}",hi-5-n,2-5,2.0,0.3638,2.1308,0
15480,63cd84dd58c4334a66b045c3,run1,quiz,True,195.0,,,,195.0,63cc988c2a276a3b63c222e6,63cd82d3d1db04dd3a8b1a7e,$1.82,1.82,62.0,6.0,2.0,5.0,na,na,1.0,0.0,{},1674413270247.0,1674413270247.0,7966.0,7966.0,6.709,1.257,1674412935900.0,1674413278213.0,,,,,,,,2,no_count,,,,,,,,,True,False,False,False,False,False,False,False,False,False,True,1.0,0.0,0.0,0.0,1.0,1.0,"{'se': 4.0, 'ki': 1.0, 'na': 2.0, 'to': 3.0, 'hu': 5.0}",2,2,1.0,0.6285,7.3374999999999995,8
15483,63cd84e058c4334a66b045c6,run1,quiz,True,195.0,,,,195.0,63cc988c2a276a3b63c222e6,63cd82d3d1db04dd3a8b1a7e,$1.85,1.85,63.0,7.0,3.0,5.0,to,to,1.0,0.0,{},1674413279223.0,1674413279223.0,1742.0,1742.0,1.117,0.625,1674412935900.0,1674413280965.0,,,,,,,,2,no_count,,,,,,,,,True,False,False,False,False,False,False,False,False,False,True,1.0,0.0,0.0,0.0,1.0,1.0,"{'se': 4.0, 'ki': 1.0, 'na': 2.0, 'to': 3.0, 'hu': 5.0}",3,3,1.0,0.3125,1.4295,7
15486,63cd84e458c4334a66b045c9,run1,quiz,True,195.0,,,,195.0,63cc988c2a276a3b63c222e6,63cd82d3d1db04dd3a8b1a7e,$1.88,1.88,64.0,0.0,7.0,5.0,hu-na,huna,1.0,0.0,{},1674413281981.0,1674413281981.0,3560.0,3560.0,1.743,1.817,1674412935900.0,1674413285541.0,,,,,,,,2,no_count,,,,,,,,,True,False,False,False,False,False,False,False,False,False,True,0.0,1.0,0.0,0.0,1.0,2.0,"{'se': 4.0, 'ki': 1.0, 'na': 2.0, 'to': 3.0, 'hu': 5.0}",5-2,5-2,2.0,0.45425,2.19725,3
15490,63cd84ea58c4334a66b045cd,run1,quiz,False,194.0,,,,194.0,63cc988c2a276a3b63c222e6,63cd82c14591a1ba4aae1fd5,$0.81,0.81,44.0,1.0,2.0,5.0,hu,hu,1.0,0.0,{},1674413280110.0,1674413280110.0,9809.0,9809.0,8.775,1.034,1674412833937.0,1674413289919.0,,,,,,,,2,no_count,,,,,,,,,True,False,False,False,False,False,False,False,False,False,True,1.0,0.0,0.0,0.0,1.0,1.0,"{'te': 4.0, 'na': 1.0, 'ki': 5.0, 'hu': 2.0, 'so': 3.0}",2,2,1.0,0.517,9.292,6
15494,63cd84ee58c4334a66b045d1,run1,quiz,False,194.0,,,,194.0,63cc988c2a276a3b63c222e6,63cd82c14591a1ba4aae1fd5,$0.81,0.81,45.0,2.0,8.0,5.0,ki-so,hisu,0.0,0.0,{},1674413290931.0,1674413290931.0,3389.0,3389.0,1.536,1.853,1674412833937.0,1674413294320.0,,,,,,,,2,no_count,,,,,,,,,True,False,False,False,False,False,False,False,False,False,True,0.0,1.0,0.0,0.0,1.0,2.0,"{'te': 4.0, 'na': 1.0, 'ki': 5.0, 'hu': 2.0, 'so': 3.0}",hisu,5-3,2.0,0.46325,1.99925,0
15502,63cd84fa58c4334a66b045d9,run1,quiz,False,194.0,,,,194.0,63cc988c2a276a3b63c222e6,63cd82c14591a1ba4aae1fd5,$0.84,0.84,46.0,3.0,1.0,5.0,na,na,1.0,0.0,{},1674413303632.0,1674413303632.0,2760.0,2760.0,1.664,1.096,1674412833937.0,1674413306392.0,,,,,,,,2,no_count,,,,,,,,,True,False,False,False,False,False,False,False,False,False,True,1.0,0.0,0.0,0.0,1.0,1.0,"{'te': 4.0, 'na': 1.0, 'ki': 5.0, 'hu': 2.0, 'so': 3.0}",1,1,1.0,0.548,2.2119999999999997,6
15504,63cd850f58c4334a66b045db,run1,quiz,False,194.0,,,,194.0,63cc988c2a276a3b63c222e6,63cd82c14591a1ba4aae1fd5,$0.84,0.84,47.0,4.0,5.0,5.0,ki,kin,0.0,0.0,"{'1674413313393': 'blurred', '1674413317239': 'focused'}",1674413307400.0,1674413307400.0,20077.0,20077.0,16.631,3.446,1674412833937.0,1674413327477.0,,,,,,,,2,no_count,,,,,,,,,True,False,False,False,False,False,True,False,False,False,True,1.0,0.0,0.0,0.0,1.0,1.0,"{'te': 4.0, 'na': 1.0, 'ki': 5.0, 'hu': 2.0, 'so': 3.0}",5-n,5,1.0,1.1486666666666667,17.779666666666667,3
15508,63cd851658c4334a66b045df,run1,quiz,False,194.0,,,,194.0,63cc988c2a276a3b63c222e6,63cd82c14591a1ba4aae1fd5,$0.87,0.87,48.0,5.0,4.0,5.0,te,te,1.0,0.0,{},1674413332403.0,1674413332403.0,2195.0,2195.0,1.058,1.137,1674412833937.0,1674413334598.0,,,,,,,,2,no_count,,,,,,,,,True,False,False,False,False,False,False,False,False,False,True,1.0,0.0,0.0,0.0,1.0,1.0,"{'te': 4.0, 'na': 1.0, 'ki': 5.0, 'hu': 2.0, 'so': 3.0}",4,4,1.0,0.5685,1.6265,6
15509,63cd851e58c4334a66b045e0,run1,quiz,False,194.0,,,,194.0,63cc988c2a276a3b63c222e6,63cd82c14591a1ba4aae1fd5,$0.87,0.87,49.0,6.0,3.0,5.0,so,ku,0.0,0.0,{},1674413335608.0,1674413335608.0,7274.0,7274.0,1.035,6.239,1674412833937.0,1674413342882.0,,,,,,,,2,no_count,,,,,,,,,True,False,False,False,False,False,False,False,False,False,True,1.0,0.0,0.0,0.0,1.0,1.0,"{'te': 4.0, 'na': 1.0, 'ki': 5.0, 'hu': 2.0, 'so': 3.0}",ku,3,1.0,3.1195,4.1545,3
15512,63cd852d58c4334a66b045e3,run1,quiz,False,194.0,,,,194.0,63cc988c2a276a3b63c222e6,63cd82c14591a1ba4aae1fd5,$0.91,0.91,50.0,7.0,3.0,5.0,so,so,1.0,0.0,{},1674413355178.0,1674413355178.0,2442.0,2442.0,1.763,0.679,1674412833937.0,1674413357620.0,,,,,,,,2,no_count,,,,,,,,,True,False,False,False,False,False,False,False,False,False,True,1.0,0.0,0.0,0.0,1.0,1.0,"{'te': 4.0, 'na': 1.0, 'ki': 5.0, 'hu': 2.0, 'so': 3.0}",3,3,1.0,0.3395,2.1025,4
15513,63cd853058c4334a66b045e4,run1,quiz,False,194.0,,,,194.0,63cc988c2a276a3b63c222e6,63cd82c14591a1ba4aae1fd5,$0.94,0.94,51.0,8.0,3.0,5.0,so,so,1.0,0.0,{},1674413358637.0,1674413358637.0,1594.0,1594.0,1.052,0.542,1674412833937.0,1674413360231.0,,,,,,,,2,no_count,,,,,,,,,True,False,False,False,False,False,False,False,False,False,True,1.0,0.0,0.0,0.0,1.0,1.0,"{'te': 4.0, 'na': 1.0, 'ki': 5.0, 'hu': 2.0, 'so': 3.0}",3,3,1.0,0.271,1.323,5
15514,63cd853858c4334a66b045e5,run1,quiz,False,194.0,,,,194.0,63cc988c2a276a3b63c222e6,63cd82c14591a1ba4aae1fd5,$0.94,0.94,52.0,0.0,9.0,5.0,ki-te,sohi,0.0,0.0,{},1674413361243.0,1674413361243.0,7035.0,7035.0,3.781,3.254,1674412833937.0,1674413368278.0,,,,,,,,2,no_count,,,,,,,,,True,False,False,False,False,False,False,False,False,False,True,0.0,1.0,0.0,0.0,1.0,2.0,"{'te': 4.0, 'na': 1.0, 'ki': 5.0, 'hu': 2.0, 'so': 3.0}",3-hi,5-4,2.0,0.8135,4.5945,1
15517,63cd854758c4334a66b045e9,run1,quiz,False,194.0,,,,194.0,63cc988c2a276a3b63c222e6,63cd82c14591a1ba4aae1fd5,$0.94,0.94,53.0,1.0,6.0,5.0,ki-na,kute,0.0,0.0,{},1674413375460.0,1674413375460.0,8017.0,8017.0,6.757,1.26,1674412833937.0,1674413383477.0,,,,,,,,2,no_count,,,,,,,,,True,False,False,False,False,False,False,False,False,False,True,0.0,1.0,0.0,0.0,1.0,2.0,"{'te': 4.0, 'na': 1.0, 'ki': 5.0, 'hu': 2.0, 'so': 3.0}",ku-4,5-1,2.0,0.315,7.072,3
15520,63cd854f58c4334a66b045ec,run1,quiz,False,194.0,,,,194.0,63cc988c2a276a3b63c222e6,63cd82c14591a1ba4aae1fd5,$0.97,0.97,54.0,2.0,1.0,5.0,na,na,1.0,0.0,{},1674413389788.0,1674413389788.0,2003.0,2003.0,1.106,0.897,1674412833937.0,1674413391791.0,,,,,,,,2,no_count,,,,,,,,,True,False,False,False,False,False,False,False,False,False,True,1.0,0.0,0.0,0.0,1.0,1.0,"{'te': 4.0, 'na': 1.0, 'ki': 5.0, 'hu': 2.0, 'so': 3.0}",1,1,1.0,0.4485,1.5545,7
15522,63cd855658c4334a66b045ee,run1,quiz,False,194.0,,,,194.0,63cc988c2a276a3b63c222e6,63cd82c14591a1ba4aae1fd5,$1,1.0,55.0,3.0,3.0,5.0,so,so,1.0,0.0,{},1674413392807.0,1674413392807.0,5827.0,5827.0,5.363,0.464,1674412833937.0,1674413398634.0,,,,,,,,2,no_count,,,,,,,,,True,False,False,False,False,False,False,False,False,False,True,1.0,0.0,0.0,0.0,1.0,1.0,"{'te': 4.0, 'na': 1.0, 'ki': 5.0, 'hu': 2.0, 'so': 3.0}",3,3,1.0,0.232,5.595000000000001,6
15524,63cd855a58c4334a66b045f0,run1,quiz,False,194.0,,,,194.0,63cc988c2a276a3b63c222e6,63cd82c14591a1ba4aae1fd5,$1,1.0,56.0,4.0,8.0,5.0,ki-so,hiso,0.0,0.0,{},1674413399645.0,1674413399645.0,2969.0,2969.0,1.937,1.032,1674412833937.0,1674413402614.0,,,,,,,,2,no_count,,,,,,,,,True,False,False,False,False,False,False,False,False,False,True,0.0,1.0,0.0,0.0,1.0,2.0,"{'te': 4.0, 'na': 1.0, 'ki': 5.0, 'hu': 2.0, 'so': 3.0}",hi-3,5-3,2.0,0.258,2.1950000000000003,1
15532,63cd856458c4334a66b045f8,run1,quiz,False,194.0,,,,194.0,63cc988c2a276a3b63c222e6,63cd82c14591a1ba4aae1fd5,$1.03,1.03,57.0,5.0,2.0,5.0,hu,hu,1.0,0.0,{},1674413409653.0,1674413409653.0,2806.0,2806.0,1.866,0.94,1674412833937.0,1674413412459.0,,,,,,,,2,no_count,,,,,,,,,True,False,False,False,False,False,False,False,False,False,True,1.0,0.0,0.0,0.0,1.0,1.0,"{'te': 4.0, 'na': 1.0, 'ki': 5.0, 'hu': 2.0, 'so': 3.0}",2,2,1.0,0.47,2.3360000000000003,7
15534,63cd856858c4334a66b045fa,run1,quiz,False,194.0,,,,194.0,63cc988c2a276a3b63c222e6,63cd82c14591a1ba4aae1fd5,$1.06,1.06,58.0,6.0,3.0,5.0,so,so,1.0,0.0,{},1674413413469.0,1674413413469.0,2726.0,2726.0,2.314,0.412,1674412833937.0,1674413416195.0,,,,,,,,2,no_count,,,,,,,,,True,False,False,False,False,False,False,False,False,False,True,1.0,0.0,0.0,0.0,1.0,1.0,"{'te': 4.0, 'na': 1.0, 'ki': 5.0, 'hu': 2.0, 'so': 3.0}",3,3,1.0,0.206,2.52,7
15538,63cd856d58c4334a66b045fe,run1,quiz,False,194.0,,,,194.0,63cc988c2a276a3b63c222e6,63cd82c14591a1ba4aae1fd5,$1.06,1.06,59.0,7.0,8.0,5.0,ki-so,kitu,0.0,0.0,{},1674413417205.0,1674413417205.0,4583.0,4583.0,3.2,1.383,1674412833937.0,1674413421788.0,,,,,,,,2,no_count,,,,,,,,,True,False,False,False,False,False,False,False,False,False,True,0.0,1.0,0.0,0.0,1.0,2.0,"{'te': 4.0, 'na': 1.0, 'ki': 5.0, 'hu': 2.0, 'so': 3.0}",5-tu,5-3,2.0,0.34575,3.54575,2
15545,63cd857958c4334a66b04605,run1,quiz,False,194.0,,,,194.0,63cc988c2a276a3b63c222e6,63cd82c14591a1ba4aae1fd5,$1.09,1.09,60.0,8.0,2.0,5.0,hu,hu,1.0,0.0,{},1674413429831.0,1674413429831.0,3875.0,3875.0,2.903,0.972,1674412833937.0,1674413433706.0,,,,,,,,2,no_count,,,,,,,,,True,False,False,False,False,False,False,False,False,False,True,1.0,0.0,0.0,0.0,1.0,1.0,"{'te': 4.0, 'na': 1.0, 'ki': 5.0, 'hu': 2.0, 'so': 3.0}",2,2,1.0,0.486,3.3890000000000002,8
15547,63cd857c58c4334a66b04607,run1,quiz,False,194.0,,,,194.0,63cc988c2a276a3b63c222e6,63cd82c14591a1ba4aae1fd5,$1.12,1.12,61.0,-1.0,1.0,5.0,na,na,1.0,0.0,{},1674413434719.0,1674413434719.0,1305.0,1305.0,0.886,0.419,1674412833937.0,1674413436024.0,,,,,,,,2,no_count,,,,,,,,,True,False,False,False,False,False,False,False,False,False,True,1.0,0.0,0.0,0.0,1.0,1.0,"{'te': 4.0, 'na': 1.0, 'ki': 5.0, 'hu': 2.0, 'so': 3.0}",1,1,1.0,0.2095,1.0955,8
15552,63cd858158c4334a66b0460c,run1,quiz,True,194.0,,,,194.0,63cc988c2a276a3b63c222e6,63cd82c14591a1ba4aae1fd5,$1.12,1.12,62.0,0.0,5.0,5.0,ki,ku,0.0,0.0,{},1674413437036.0,1674413437036.0,4198.0,4198.0,3.608,0.59,1674412833937.0,1674413441234.0,,,,,,,,2,no_count,,,,,,,,,True,False,False,False,False,False,False,False,False,False,True,1.0,0.0,0.0,0.0,1.0,1.0,"{'te': 4.0, 'na': 1.0, 'ki': 5.0, 'hu': 2.0, 'so': 3.0}",ku,5,1.0,0.295,3.903,4
15566,63cd859158c4334a66b0461a,run1,quiz,True,194.0,,,,194.0,63cc988c2a276a3b63c222e6,63cd82c14591a1ba4aae1fd5,$1.15,1.15,63.0,1.0,6.0,5.0,ki-na,kina,1.0,0.0,{},1674413453024.0,1674413453024.0,4543.0,4543.0,3.515,1.028,1674412833937.0,1674413457567.0,,,,,,,,2,no_count,,,,,,,,,True,False,False,False,False,False,False,False,False,False,True,0.0,1.0,0.0,0.0,1.0,2.0,"{'te': 4.0, 'na': 1.0, 'ki': 5.0, 'hu': 2.0, 'so': 3.0}",5-1,5-1,2.0,0.257,3.7720000000000002,4
15568,63cd859558c4334a66b0461c,run1,quiz,True,194.0,,,,194.0,63cc988c2a276a3b63c222e6,63cd82c14591a1ba4aae1fd5,$1.18,1.18,64.0,0.0,5.0,5.0,ki,ki,1.0,0.0,{},1674413458585.0,1674413458585.0,3162.0,3162.0,1.566,1.596,1674412833937.0,1674413461747.0,,,,,,,,2,no_count,,,,,,,,,True,False,False,False,False,False,False,False,False,False,True,1.0,0.0,0.0,0.0,1.0,1.0,"{'te': 4.0, 'na': 1.0, 'ki': 5.0, 'hu': 2.0, 'so': 3.0}",5,5,1.0,0.798,2.364,5
15666,63cd8b5058c4334a66b047b1,run1,quiz,False,196.0,,,,196.0,63cc988c2a276a3b63c222e6,63cd8a33aec0ccabcf0f9ba9,$0.15,0.15,5.0,0.0,5.0,5.0,to,to,1.0,0.0,{},1674414926386.0,1674414926386.0,3872.0,3872.0,2.396,1.476,1674414847191.0,1674414930258.0,,,,,,,,2,no_count,,,,,,,,,True,False,False,False,False,False,False,False,False,False,True,1.0,0.0,0.0,0.0,1.0,1.0,"{'si': 4.0, 'ke': 1.0, 'to': 5.0, 'hu': 3.0, 'na': 2.0}",5,5,1.0,0.738,3.134,0
15667,63cd8b5558c4334a66b047b2,run1,quiz,False,196.0,,,,196.0,63cc988c2a276a3b63c222e6,63cd8a33aec0ccabcf0f9ba9,$0.18,0.18,6.0,1.0,5.0,5.0,to,to,1.0,0.0,{},1674414931267.0,1674414931267.0,3914.0,3914.0,2.436,1.478,1674414847191.0,1674414935181.0,,,,,,,,2,no_count,,,,,,,,,True,False,False,False,False,False,False,False,False,False,True,1.0,0.0,0.0,0.0,1.0,1.0,"{'si': 4.0, 'ke': 1.0, 'to': 5.0, 'hu': 3.0, 'na': 2.0}",5,5,1.0,0.739,3.175,1
15670,63cd8b6958c4334a66b047b5,run1,quiz,False,196.0,,,,196.0,63cc988c2a276a3b63c222e6,63cd8a33aec0ccabcf0f9ba9,$0.24,0.24,8.0,0.0,5.0,5.0,to,to,1.0,0.0,{},1674414951825.0,1674414951825.0,4011.0,4011.0,2.52,1.491,1674414847191.0,1674414955836.0,,,,,,,,2,no_count,,,,,,,,,True,False,False,False,False,False,False,False,False,False,True,1.0,0.0,0.0,0.0,1.0,1.0,"{'si': 4.0, 'ke': 1.0, 'to': 5.0, 'hu': 3.0, 'na': 2.0}",5,5,1.0,0.7455,3.2655000000000003,2
15671,63cd8b6f58c4334a66b047b6,run1,quiz,False,196.0,,,,196.0,63cc988c2a276a3b63c222e6,63cd8a33aec0ccabcf0f9ba9,$0.27,0.27,9.0,1.0,3.0,5.0,hu,hu,1.0,0.0,{},1674414956847.0,1674414956847.0,4865.0,4865.0,3.424,1.441,1674414847191.0,1674414961712.0,,,,,,,,2,no_count,,,,,,,,,True,False,False,False,False,False,False,False,False,False,True,1.0,0.0,0.0,0.0,1.0,1.0,"{'si': 4.0, 'ke': 1.0, 'to': 5.0, 'hu': 3.0, 'na': 2.0}",3,3,1.0,0.7205,4.1445,0
15676,63cd8b9158c4334a66b047bb,run1,quiz,False,196.0,,,,196.0,63cc988c2a276a3b63c222e6,63cd8a33aec0ccabcf0f9ba9,$0.36,0.36,12.0,0.0,3.0,5.0,hu,hu,1.0,0.0,{},1674414991477.0,1674414991477.0,4225.0,4225.0,2.775,1.45,1674414847191.0,1674414995702.0,,,,,,,,2,no_count,,,,,,,,,True,False,False,False,False,False,False,False,False,False,True,1.0,0.0,0.0,0.0,1.0,1.0,"{'si': 4.0, 'ke': 1.0, 'to': 5.0, 'hu': 3.0, 'na': 2.0}",3,3,1.0,0.725,3.5,1
15679,63cd8bb158c4334a66b047be,run1,quiz,False,196.0,,,,196.0,63cc988c2a276a3b63c222e6,63cd8a33aec0ccabcf0f9ba9,$0.42,0.42,14.0,2.0,6.0,5.0,to-ke,toke,1.0,0.0,{},1674415020382.0,1674415020382.0,7073.0,7073.0,3.592,3.481,1674414847191.0,1674415027455.0,,,,,,,,2,no_count,,,,,,,,,True,False,False,False,False,False,False,False,False,False,True,0.0,1.0,0.0,0.0,1.0,2.0,"{'si': 4.0, 'ke': 1.0, 'to': 5.0, 'hu': 3.0, 'na': 2.0}",5-1,5-1,2.0,0.87025,4.46225,0
15682,63cd8bc758c4334a66b047c1,run1,quiz,False,196.0,,,,196.0,63cc988c2a276a3b63c222e6,63cd8a33aec0ccabcf0f9ba9,$0.48,0.48,16.0,4.0,6.0,5.0,to-ke,toke,1.0,0.0,{},1674415045001.0,1674415045001.0,4370.0,4370.0,1.746,2.624,1674414847191.0,1674415049371.0,,,,,,,,2,no_count,,,,,,,,,True,False,False,False,False,False,False,False,False,False,True,0.0,1.0,0.0,0.0,1.0,2.0,"{'si': 4.0, 'ke': 1.0, 'to': 5.0, 'hu': 3.0, 'na': 2.0}",5-1,5-1,2.0,0.656,2.402,1
15683,63cd8bcc58c4334a66b047c2,run1,quiz,False,196.0,,,,196.0,63cc988c2a276a3b63c222e6,63cd8a33aec0ccabcf0f9ba9,$0.51,0.51,17.0,0.0,3.0,5.0,hu,hu,1.0,0.0,{},1674415050389.0,1674415050389.0,4203.0,4203.0,2.234,1.969,1674414847191.0,1674415054592.0,,,,,,,,2,no_count,,,,,,,,,True,False,False,False,False,False,False,False,False,False,True,1.0,0.0,0.0,0.0,1.0,1.0,"{'si': 4.0, 'ke': 1.0, 'to': 5.0, 'hu': 3.0, 'na': 2.0}",3,3,1.0,0.9845,3.2185,2
15684,63cd8bd258c4334a66b047c3,run1,quiz,False,196.0,,,,196.0,63cc988c2a276a3b63c222e6,63cd8a33aec0ccabcf0f9ba9,$0.54,0.54,18.0,1.0,8.0,5.0,to-hu,tohu,1.0,0.0,{},1674415055601.0,1674415055601.0,4414.0,4414.0,2.046,2.368,1674414847191.0,1674415060015.0,,,,,,,,2,no_count,,,,,,,,,True,False,False,False,False,False,False,False,False,False,True,0.0,1.0,0.0,0.0,1.0,2.0,"{'si': 4.0, 'ke': 1.0, 'to': 5.0, 'hu': 3.0, 'na': 2.0}",5-3,5-3,2.0,0.592,2.638,0
15685,63cd8bd958c4334a66b047c4,run1,quiz,False,196.0,,,,196.0,63cc988c2a276a3b63c222e6,63cd8a33aec0ccabcf0f9ba9,$0.57,0.57,19.0,2.0,7.0,5.0,to-na,tona,1.0,0.0,{},1674415061025.0,1674415061025.0,6317.0,6317.0,2.919,3.398,1674414847191.0,1674415067342.0,,,,,,,,2,no_count,,,,,,,,,True,False,False,False,False,False,False,False,False,False,True,0.0,1.0,0.0,0.0,1.0,2.0,"{'si': 4.0, 'ke': 1.0, 'to': 5.0, 'hu': 3.0, 'na': 2.0}",5-2,5-2,2.0,0.8495,3.7685,0
15686,63cd8bdf58c4334a66b047c5,run1,quiz,False,196.0,,,,196.0,63cc988c2a276a3b63c222e6,63cd8a33aec0ccabcf0f9ba9,$0.6,0.6,20.0,3.0,8.0,5.0,to-hu,tohu,1.0,0.0,{},1674415068348.0,1674415068348.0,4305.0,4305.0,1.696,2.609,1674414847191.0,1674415072653.0,,,,,,,,2,no_count,,,,,,,,,True,False,False,False,False,False,False,False,False,False,True,0.0,1.0,0.0,0.0,1.0,2.0,"{'si': 4.0, 'ke': 1.0, 'to': 5.0, 'hu': 3.0, 'na': 2.0}",5-3,5-3,2.0,0.65225,2.34825,1
15687,63cd8be258c4334a66b047c6,run1,quiz,False,196.0,,,,196.0,63cc988c2a276a3b63c222e6,63cd8a33aec0ccabcf0f9ba9,$0.6,0.6,21.0,4.0,1.0,5.0,ke,to,0.0,0.0,{},1674415073658.0,1674415073658.0,2933.0,2933.0,1.675,1.258,1674414847191.0,1674415076591.0,,,,,,,,2,no_count,,,,,,,,,True,False,False,False,False,False,False,False,False,False,True,1.0,0.0,0.0,0.0,1.0,1.0,"{'si': 4.0, 'ke': 1.0, 'to': 5.0, 'hu': 3.0, 'na': 2.0}",5,1,1.0,0.629,2.3040000000000003,0
15689,63cd8bef58c4334a66b047c8,run1,quiz,False,196.0,,,,196.0,63cc988c2a276a3b63c222e6,63cd8a33aec0ccabcf0f9ba9,$0.65,0.65,22.0,5.0,2.0,5.0,na,na,1.0,0.0,{},1674415083267.0,1674415083267.0,5927.0,5927.0,3.916,2.011,1674414847191.0,1674415089194.0,,,,,,,,2,no_count,,,,,,,,,True,False,False,False,False,False,False,False,False,False,True,1.0,0.0,0.0,0.0,1.0,1.0,"{'si': 4.0, 'ke': 1.0, 'to': 5.0, 'hu': 3.0, 'na': 2.0}",2,2,1.0,1.0055,4.9215,0
15690,63cd8bf858c4334a66b047c9,run1,quiz,False,196.0,,,,196.0,63cc988c2a276a3b63c222e6,63cd8a33aec0ccabcf0f9ba9,$0.68,0.68,23.0,0.0,9.0,5.0,to-si,tosi,1.0,0.0,{},1674415090200.0,1674415090200.0,8245.0,8245.0,2.681,5.564,1674414847191.0,1674415098445.0,,,,,,,,2,no_count,,,,,,,,,True,False,False,False,False,False,False,False,False,False,True,0.0,1.0,0.0,0.0,1.0,2.0,"{'si': 4.0, 'ke': 1.0, 'to': 5.0, 'hu': 3.0, 'na': 2.0}",5-4,5-4,2.0,1.391,4.072,0
15691,63cd8bfd58c4334a66b047ca,run1,quiz,False,196.0,,,,196.0,63cc988c2a276a3b63c222e6,63cd8a33aec0ccabcf0f9ba9,$0.71,0.71,24.0,1.0,4.0,5.0,si,si,1.0,0.0,{},1674415099456.0,1674415099456.0,4105.0,4105.0,2.509,1.596,1674414847191.0,1674415103561.0,,,,,,,,2,no_count,,,,,,,,,True,False,False,False,False,False,False,False,False,False,True,1.0,0.0,0.0,0.0,1.0,1.0,"{'si': 4.0, 'ke': 1.0, 'to': 5.0, 'hu': 3.0, 'na': 2.0}",4,4,1.0,0.798,3.307,0
15692,63cd8c0258c4334a66b047cb,run1,quiz,False,196.0,,,,196.0,63cc988c2a276a3b63c222e6,63cd8a33aec0ccabcf0f9ba9,$0.74,0.74,25.0,2.0,1.0,5.0,ke,ke,1.0,0.0,{},1674415104567.0,1674415104567.0,3664.0,3664.0,1.936,1.728,1674414847191.0,1674415108231.0,,,,,,,,2,no_count,,,,,,,,,True,False,False,False,False,False,False,False,False,False,True,1.0,0.0,0.0,0.0,1.0,1.0,"{'si': 4.0, 'ke': 1.0, 'to': 5.0, 'hu': 3.0, 'na': 2.0}",1,1,1.0,0.864,2.8,1
15693,63cd8c0758c4334a66b047cc,run1,quiz,False,196.0,,,,196.0,63cc988c2a276a3b63c222e6,63cd8a33aec0ccabcf0f9ba9,$0.77,0.77,26.0,3.0,5.0,5.0,to,to,1.0,0.0,{},1674415109242.0,1674415109242.0,3661.0,3661.0,1.904,1.757,1674414847191.0,1674415112903.0,,,,,,,,2,no_count,,,,,,,,,True,False,False,False,False,False,False,False,False,False,True,1.0,0.0,0.0,0.0,1.0,1.0,"{'si': 4.0, 'ke': 1.0, 'to': 5.0, 'hu': 3.0, 'na': 2.0}",5,5,1.0,0.8785,2.7824999999999998,3
15694,63cd8c0c58c4334a66b047cd,run1,quiz,False,196.0,,,,196.0,63cc988c2a276a3b63c222e6,63cd8a33aec0ccabcf0f9ba9,$0.8,0.8,27.0,4.0,2.0,5.0,na,na,1.0,0.0,{},1674415113909.0,1674415113909.0,3901.0,3901.0,2.442,1.459,1674414847191.0,1674415117810.0,,,,,,,,2,no_count,,,,,,,,,True,False,False,False,False,False,False,False,False,False,True,1.0,0.0,0.0,0.0,1.0,1.0,"{'si': 4.0, 'ke': 1.0, 'to': 5.0, 'hu': 3.0, 'na': 2.0}",2,2,1.0,0.7295,3.1715,1
15695,63cd8c1458c4334a66b047ce,run1,quiz,False,196.0,,,,196.0,63cc988c2a276a3b63c222e6,63cd8a33aec0ccabcf0f9ba9,$0.83,0.83,28.0,5.0,9.0,5.0,to-si,tosi,1.0,0.0,{},1674415118823.0,1674415118823.0,7277.0,7277.0,3.191,4.086,1674414847191.0,1674415126100.0,,,,,,,,2,no_count,,,,,,,,,True,False,False,False,False,False,False,False,False,False,True,0.0,1.0,0.0,0.0,1.0,2.0,"{'si': 4.0, 'ke': 1.0, 'to': 5.0, 'hu': 3.0, 'na': 2.0}",5-4,5-4,2.0,1.0215,4.2125,1
15698,63cd8c2d58c4334a66b047d1,run1,quiz,False,196.0,,,,196.0,63cc988c2a276a3b63c222e6,63cd8a33aec0ccabcf0f9ba9,$0.89,0.89,30.0,0.0,3.0,5.0,hu,hu,1.0,0.0,{},1674415147807.0,1674415147807.0,3714.0,3714.0,1.994,1.72,1674414847191.0,1674415151521.0,,,,,,,,2,no_count,,,,,,,,,True,False,False,False,False,False,False,False,False,False,True,1.0,0.0,0.0,0.0,1.0,1.0,"{'si': 4.0, 'ke': 1.0, 'to': 5.0, 'hu': 3.0, 'na': 2.0}",3,3,1.0,0.86,2.854,3
15699,63cd8c3258c4334a66b047d2,run1,quiz,False,196.0,,,,196.0,63cc988c2a276a3b63c222e6,63cd8a33aec0ccabcf0f9ba9,$0.92,0.92,31.0,1.0,1.0,5.0,ke,ke,1.0,0.0,{},1674415152528.0,1674415152528.0,3481.0,3481.0,1.98,1.501,1674414847191.0,1674415156010.0,,,,,,,,2,no_count,,,,,,,,,True,False,False,False,False,False,False,False,False,False,True,1.0,0.0,0.0,0.0,1.0,1.0,"{'si': 4.0, 'ke': 1.0, 'to': 5.0, 'hu': 3.0, 'na': 2.0}",1,1,1.0,0.7505,2.7305,2
15700,63cd8c3958c4334a66b047d3,run1,quiz,False,196.0,,,,196.0,63cc988c2a276a3b63c222e6,63cd8a33aec0ccabcf0f9ba9,$0.95,0.95,32.0,2.0,7.0,5.0,to-na,tona,1.0,0.0,{},1674415157024.0,1674415157024.0,6160.0,6160.0,1.727,4.433,1674414847191.0,1674415163184.0,,,,,,,,2,no_count,,,,,,,,,True,False,False,False,False,False,False,False,False,False,True,0.0,1.0,0.0,0.0,1.0,2.0,"{'si': 4.0, 'ke': 1.0, 'to': 5.0, 'hu': 3.0, 'na': 2.0}",5-2,5-2,2.0,1.10825,2.8352500000000003,1
15701,63cd8c3d58c4334a66b047d4,run1,quiz,False,196.0,,,,196.0,63cc988c2a276a3b63c222e6,63cd8a33aec0ccabcf0f9ba9,$0.98,0.98,33.0,3.0,3.0,5.0,hu,hu,1.0,0.0,{},1674415164189.0,1674415164189.0,3231.0,3231.0,1.665,1.566,1674414847191.0,1674415167420.0,,,,,,,,2,no_count,,,,,,,,,True,False,False,False,False,False,False,False,False,False,True,1.0,0.0,0.0,0.0,1.0,1.0,"{'si': 4.0, 'ke': 1.0, 'to': 5.0, 'hu': 3.0, 'na': 2.0}",3,3,1.0,0.783,2.448,4
15702,63cd8c4258c4334a66b047d5,run1,quiz,False,196.0,,,,196.0,63cc988c2a276a3b63c222e6,63cd8a33aec0ccabcf0f9ba9,$1.01,1.01,34.0,4.0,2.0,5.0,na,na,1.0,0.0,{},1674415168428.0,1674415168428.0,3188.0,3188.0,1.437,1.751,1674414847191.0,1674415171616.0,,,,,,,,2,no_count,,,,,,,,,True,False,False,False,False,False,False,False,False,False,True,1.0,0.0,0.0,0.0,1.0,1.0,"{'si': 4.0, 'ke': 1.0, 'to': 5.0, 'hu': 3.0, 'na': 2.0}",2,2,1.0,0.8755,2.3125,2
15703,63cd8c4858c4334a66b047d6,run1,quiz,False,196.0,,,,196.0,63cc988c2a276a3b63c222e6,63cd8a33aec0ccabcf0f9ba9,$1.04,1.04,35.0,5.0,4.0,5.0,si,si,1.0,0.0,{},1674415172635.0,1674415172635.0,5095.0,5095.0,3.342,1.753,1674414847191.0,1674415177730.0,,,,,,,,2,no_count,,,,,,,,,True,False,False,False,False,False,False,False,False,False,True,1.0,0.0,0.0,0.0,1.0,1.0,"{'si': 4.0, 'ke': 1.0, 'to': 5.0, 'hu': 3.0, 'na': 2.0}",4,4,1.0,0.8765,4.2185,1
15704,63cd8c4d58c4334a66b047d7,run1,quiz,False,196.0,,,,196.0,63cc988c2a276a3b63c222e6,63cd8a33aec0ccabcf0f9ba9,$1.07,1.07,36.0,6.0,2.0,5.0,na,na,1.0,0.0,{},1674415178745.0,1674415178745.0,4604.0,4604.0,2.464,2.14,1674414847191.0,1674415183349.0,,,,,,,,2,no_count,,,,,,,,,True,False,False,False,False,False,False,False,False,False,True,1.0,0.0,0.0,0.0,1.0,1.0,"{'si': 4.0, 'ke': 1.0, 'to': 5.0, 'hu': 3.0, 'na': 2.0}",2,2,1.0,1.07,3.534,3
15705,63cd8c5858c4334a66b047d8,run1,quiz,False,196.0,,,,196.0,63cc988c2a276a3b63c222e6,63cd8a33aec0ccabcf0f9ba9,$1.1,1.1,37.0,7.0,10.0,5.0,na-to,nato,1.0,0.0,{},1674415184364.0,1674415184364.0,9976.0,9976.0,7.275,2.701,1674414847191.0,1674415194340.0,,,,,,,,2,no_count,,,,,,,,,True,False,False,False,False,False,False,False,False,False,True,0.0,0.0,1.0,0.0,1.0,3.0,"{'si': 4.0, 'ke': 1.0, 'to': 5.0, 'hu': 3.0, 'na': 2.0}",2-5,2-5,2.0,0.67525,7.9502500000000005,0
15706,63cd8c5e58c4334a66b047d9,run1,quiz,False,196.0,,,,196.0,63cc988c2a276a3b63c222e6,63cd8a33aec0ccabcf0f9ba9,$1.13,1.13,38.0,0.0,2.0,5.0,na,na,1.0,0.0,{},1674415195351.0,1674415195351.0,4658.0,4658.0,3.257,1.401,1674414847191.0,1674415200009.0,,,,,,,,2,no_count,,,,,,,,,True,False,False,False,False,False,False,False,False,False,True,1.0,0.0,0.0,0.0,1.0,1.0,"{'si': 4.0, 'ke': 1.0, 'to': 5.0, 'hu': 3.0, 'na': 2.0}",2,2,1.0,0.7005,3.9575,4
15707,63cd8c6258c4334a66b047da,run1,quiz,False,196.0,,,,196.0,63cc988c2a276a3b63c222e6,63cd8a33aec0ccabcf0f9ba9,$1.16,1.16,39.0,1.0,4.0,5.0,si,si,1.0,0.0,{},1674415201027.0,1674415201027.0,3064.0,3064.0,1.721,1.343,1674414847191.0,1674415204091.0,,,,,,,,2,no_count,,,,,,,,,True,False,False,False,False,False,False,False,False,False,True,1.0,0.0,0.0,0.0,1.0,1.0,"{'si': 4.0, 'ke': 1.0, 'to': 5.0, 'hu': 3.0, 'na': 2.0}",4,4,1.0,0.6715,2.3925,2
15708,63cd8c6758c4334a66b047db,run1,quiz,False,196.0,,,,196.0,63cc988c2a276a3b63c222e6,63cd8a33aec0ccabcf0f9ba9,$1.19,1.19,40.0,2.0,2.0,5.0,na,na,1.0,0.0,{},1674415205094.0,1674415205094.0,4240.0,4240.0,2.715,1.525,1674414847191.0,1674415209334.0,,,,,,,,2,no_count,,,,,,,,,True,False,False,False,False,False,False,False,False,False,True,1.0,0.0,0.0,0.0,1.0,1.0,"{'si': 4.0, 'ke': 1.0, 'to': 5.0, 'hu': 3.0, 'na': 2.0}",2,2,1.0,0.7625,3.4775,5
15709,63cd8c6b58c4334a66b047dc,run1,quiz,False,196.0,,,,196.0,63cc988c2a276a3b63c222e6,63cd8a33aec0ccabcf0f9ba9,$1.22,1.22,41.0,3.0,4.0,5.0,si,si,1.0,0.0,{},1674415210349.0,1674415210349.0,2873.0,2873.0,1.582,1.291,1674414847191.0,1674415213222.0,,,,,,,,2,no_count,,,,,,,,,True,False,False,False,False,False,False,False,False,False,True,1.0,0.0,0.0,0.0,1.0,1.0,"{'si': 4.0, 'ke': 1.0, 'to': 5.0, 'hu': 3.0, 'na': 2.0}",4,4,1.0,0.6455,2.2275,3
15710,63cd8c7158c4334a66b047dd,run1,quiz,False,196.0,,,,196.0,63cc988c2a276a3b63c222e6,63cd8a33aec0ccabcf0f9ba9,$1.25,1.25,42.0,4.0,6.0,5.0,to-ke,toke,1.0,0.0,{},1674415214244.0,1674415214244.0,5112.0,5112.0,2.187,2.925,1674414847191.0,1674415219356.0,,,,,,,,2,no_count,,,,,,,,,True,False,False,False,False,False,False,False,False,False,True,0.0,1.0,0.0,0.0,1.0,2.0,"{'si': 4.0, 'ke': 1.0, 'to': 5.0, 'hu': 3.0, 'na': 2.0}",5-1,5-1,2.0,0.73125,2.9182499999999996,2
15711,63cd8c7858c4334a66b047de,run1,quiz,False,196.0,,,,196.0,63cc988c2a276a3b63c222e6,63cd8a33aec0ccabcf0f9ba9,$1.28,1.28,43.0,5.0,1.0,5.0,ke,ke,1.0,0.0,{},1674415220367.0,1674415220367.0,5904.0,5904.0,4.49,1.414,1674414847191.0,1674415226271.0,,,,,,,,2,no_count,,,,,,,,,True,False,False,False,False,False,False,False,False,False,True,1.0,0.0,0.0,0.0,1.0,1.0,"{'si': 4.0, 'ke': 1.0, 'to': 5.0, 'hu': 3.0, 'na': 2.0}",1,1,1.0,0.707,5.197,3
15712,63cd8c7d58c4334a66b047df,run1,quiz,False,196.0,,,,196.0,63cc988c2a276a3b63c222e6,63cd8a33aec0ccabcf0f9ba9,$1.31,1.31,44.0,6.0,1.0,5.0,ke,ke,1.0,0.0,{},1674415227279.0,1674415227279.0,4450.0,4450.0,2.936,1.514,1674414847191.0,1674415231729.0,,,,,,,,2,no_count,,,,,,,,,True,False,False,False,False,False,False,False,False,False,True,1.0,0.0,0.0,0.0,1.0,1.0,"{'si': 4.0, 'ke': 1.0, 'to': 5.0, 'hu': 3.0, 'na': 2.0}",1,1,1.0,0.757,3.693,4
15713,63cd8c8258c4334a66b047e0,run1,quiz,False,196.0,,,,196.0,63cc988c2a276a3b63c222e6,63cd8a33aec0ccabcf0f9ba9,$1.34,1.34,45.0,7.0,4.0,5.0,si,si,1.0,0.0,{},1674415232738.0,1674415232738.0,3515.0,3515.0,1.941,1.574,1674414847191.0,1674415236253.0,,,,,,,,2,no_count,,,,,,,,,True,False,False,False,False,False,False,False,False,False,True,1.0,0.0,0.0,0.0,1.0,1.0,"{'si': 4.0, 'ke': 1.0, 'to': 5.0, 'hu': 3.0, 'na': 2.0}",4,4,1.0,0.787,2.728,4
15714,63cd8c8858c4334a66b047e1,run1,quiz,False,196.0,,,,196.0,63cc988c2a276a3b63c222e6,63cd8a33aec0ccabcf0f9ba9,$1.37,1.37,46.0,8.0,3.0,5.0,hu,hu,1.0,0.0,{},1674415237271.0,1674415237271.0,4859.0,4859.0,3.504,1.355,1674414847191.0,1674415242130.0,,,,,,,,2,no_count,,,,,,,,,True,False,False,False,False,False,False,False,False,False,True,1.0,0.0,0.0,0.0,1.0,1.0,"{'si': 4.0, 'ke': 1.0, 'to': 5.0, 'hu': 3.0, 'na': 2.0}",3,3,1.0,0.6775,4.1815,5
15715,63cd8c8e58c4334a66b047e2,run1,quiz,False,196.0,,,,196.0,63cc988c2a276a3b63c222e6,63cd8a33aec0ccabcf0f9ba9,$1.4,1.4,47.0,0.0,2.0,5.0,na,na,1.0,0.0,{},1674415243145.0,1674415243145.0,5201.0,5201.0,3.55,1.651,1674414847191.0,1674415248346.0,,,,,,,,2,no_count,,,,,,,,,True,False,False,False,False,False,False,False,False,False,True,1.0,0.0,0.0,0.0,1.0,1.0,"{'si': 4.0, 'ke': 1.0, 'to': 5.0, 'hu': 3.0, 'na': 2.0}",2,2,1.0,0.8255,4.3755,6
15716,63cd8c9258c4334a66b047e3,run1,quiz,False,196.0,,,,196.0,63cc988c2a276a3b63c222e6,63cd8a33aec0ccabcf0f9ba9,$1.43,1.43,48.0,1.0,4.0,5.0,si,si,1.0,0.0,{},1674415249351.0,1674415249351.0,2927.0,2927.0,1.595,1.332,1674414847191.0,1674415252278.0,,,,,,,,2,no_count,,,,,,,,,True,False,False,False,False,False,False,False,False,False,True,1.0,0.0,0.0,0.0,1.0,1.0,"{'si': 4.0, 'ke': 1.0, 'to': 5.0, 'hu': 3.0, 'na': 2.0}",4,4,1.0,0.666,2.261,5
15717,63cd8c9658c4334a66b047e4,run1,quiz,False,196.0,,,,196.0,63cc988c2a276a3b63c222e6,63cd8a33aec0ccabcf0f9ba9,$1.46,1.46,49.0,2.0,5.0,5.0,to,to,1.0,0.0,{},1674415253290.0,1674415253290.0,2932.0,2932.0,1.597,1.335,1674414847191.0,1674415256222.0,,,,,,,,2,no_count,,,,,,,,,True,False,False,False,False,False,False,False,False,False,True,1.0,0.0,0.0,0.0,1.0,1.0,"{'si': 4.0, 'ke': 1.0, 'to': 5.0, 'hu': 3.0, 'na': 2.0}",5,5,1.0,0.6675,2.2645,4
15718,63cd8c9c58c4334a66b047e5,run1,quiz,False,196.0,,,,196.0,63cc988c2a276a3b63c222e6,63cd8a33aec0ccabcf0f9ba9,$1.49,1.49,50.0,3.0,8.0,5.0,to-hu,tohu,1.0,0.0,{},1674415257238.0,1674415257238.0,4832.0,4832.0,2.788,2.044,1674414847191.0,1674415262070.0,,,,,,,,2,no_count,,,,,,,,,True,False,False,False,False,False,False,False,False,False,True,0.0,1.0,0.0,0.0,1.0,2.0,"{'si': 4.0, 'ke': 1.0, 'to': 5.0, 'hu': 3.0, 'na': 2.0}",5-3,5-3,2.0,0.511,3.299,2
15719,63cd8ca058c4334a66b047e6,run1,quiz,False,196.0,,,,196.0,63cc988c2a276a3b63c222e6,63cd8a33aec0ccabcf0f9ba9,$1.52,1.52,51.0,4.0,5.0,5.0,to,to,1.0,0.0,{},1674415263086.0,1674415263086.0,3104.0,3104.0,1.734,1.37,1674414847191.0,1674415266190.0,,,,,,,,2,no_count,,,,,,,,,True,False,False,False,False,False,False,False,False,False,True,1.0,0.0,0.0,0.0,1.0,1.0,"{'si': 4.0, 'ke': 1.0, 'to': 5.0, 'hu': 3.0, 'na': 2.0}",5,5,1.0,0.685,2.419,5
15720,63cd8ca558c4334a66b047e7,run1,quiz,False,196.0,,,,196.0,63cc988c2a276a3b63c222e6,63cd8a33aec0ccabcf0f9ba9,$1.55,1.55,52.0,5.0,1.0,5.0,ke,ke,1.0,0.0,{},1674415267202.0,1674415267202.0,4207.0,4207.0,2.315,1.892,1674414847191.0,1674415271409.0,,,,,,,,2,no_count,,,,,,,,,True,False,False,False,False,False,False,False,False,False,True,1.0,0.0,0.0,0.0,1.0,1.0,"{'si': 4.0, 'ke': 1.0, 'to': 5.0, 'hu': 3.0, 'na': 2.0}",1,1,1.0,0.946,3.261,5
15721,63cd8cab58c4334a66b047e8,run1,quiz,False,196.0,,,,196.0,63cc988c2a276a3b63c222e6,63cd8a33aec0ccabcf0f9ba9,$1.58,1.58,53.0,6.0,7.0,5.0,to-na,tona,1.0,0.0,{},1674415272419.0,1674415272419.0,5362.0,5362.0,2.209,3.153,1674414847191.0,1674415277781.0,,,,,,,,2,no_count,,,,,,,,,True,False,False,False,False,False,False,False,False,False,True,0.0,1.0,0.0,0.0,1.0,2.0,"{'si': 4.0, 'ke': 1.0, 'to': 5.0, 'hu': 3.0, 'na': 2.0}",5-2,5-2,2.0,0.78825,2.99725,2
15722,63cd8cb258c4334a66b047e9,run1,quiz,False,196.0,,,,196.0,63cc988c2a276a3b63c222e6,63cd8a33aec0ccabcf0f9ba9,$1.61,1.61,54.0,7.0,6.0,5.0,to-ke,toke,1.0,0.0,{},1674415278799.0,1674415278799.0,5868.0,5868.0,3.602,2.266,1674414847191.0,1674415284667.0,,,,,,,,2,no_count,,,,,,,,,True,False,False,False,False,False,False,False,False,False,True,0.0,1.0,0.0,0.0,1.0,2.0,"{'si': 4.0, 'ke': 1.0, 'to': 5.0, 'hu': 3.0, 'na': 2.0}",5-1,5-1,2.0,0.5665,4.1685,3
15723,63cd8cb758c4334a66b047ea,run1,quiz,False,196.0,,,,196.0,63cc988c2a276a3b63c222e6,63cd8a33aec0ccabcf0f9ba9,$1.64,1.64,55.0,8.0,1.0,5.0,ke,ke,1.0,0.0,{},1674415285679.0,1674415285679.0,3378.0,3378.0,1.9,1.478,1674414847191.0,1674415289057.0,,,,,,,,2,no_count,,,,,,,,,True,False,False,False,False,False,False,False,False,False,True,1.0,0.0,0.0,0.0,1.0,1.0,"{'si': 4.0, 'ke': 1.0, 'to': 5.0, 'hu': 3.0, 'na': 2.0}",1,1,1.0,0.739,2.639,6
15724,63cd8cbb58c4334a66b047eb,run1,quiz,False,196.0,,,,196.0,63cc988c2a276a3b63c222e6,63cd8a33aec0ccabcf0f9ba9,$1.67,1.67,56.0,-1.0,1.0,5.0,ke,ke,1.0,0.0,{},1674415290062.0,1674415290062.0,3701.0,3701.0,1.842,1.859,1674414847191.0,1674415293763.0,,,,,,,,2,no_count,,,,,,,,,True,False,False,False,False,False,False,False,False,False,True,1.0,0.0,0.0,0.0,1.0,1.0,"{'si': 4.0, 'ke': 1.0, 'to': 5.0, 'hu': 3.0, 'na': 2.0}",1,1,1.0,0.9295,2.7715,7
15725,63cd8cc158c4334a66b047ec,run1,quiz,True,196.0,,,,196.0,63cc988c2a276a3b63c222e6,63cd8a33aec0ccabcf0f9ba9,$1.7,1.7,57.0,0.0,2.0,5.0,na,na,1.0,0.0,{},1674415294770.0,1674415294770.0,4553.0,4553.0,3.036,1.517,1674414847191.0,1674415299323.0,,,,,,,,2,no_count,,,,,,,,,True,False,False,False,False,False,False,False,False,False,True,1.0,0.0,0.0,0.0,1.0,1.0,"{'si': 4.0, 'ke': 1.0, 'to': 5.0, 'hu': 3.0, 'na': 2.0}",2,2,1.0,0.7585,3.7945,7
15726,63cd8cc658c4334a66b047ed,run1,quiz,True,196.0,,,,196.0,63cc988c2a276a3b63c222e6,63cd8a33aec0ccabcf0f9ba9,$1.73,1.73,58.0,1.0,2.0,5.0,na,na,1.0,0.0,{},1674415300341.0,1674415300341.0,3668.0,3668.0,1.679,1.989,1674414847191.0,1674415304009.0,,,,,,,,2,no_count,,,,,,,,,True,False,False,False,False,False,False,False,False,False,True,1.0,0.0,0.0,0.0,1.0,1.0,"{'si': 4.0, 'ke': 1.0, 'to': 5.0, 'hu': 3.0, 'na': 2.0}",2,2,1.0,0.9945,2.6735,8
15727,63cd8cca58c4334a66b047ee,run1,quiz,True,196.0,,,,196.0,63cc988c2a276a3b63c222e6,63cd8a33aec0ccabcf0f9ba9,$1.76,1.76,59.0,2.0,1.0,5.0,ke,ke,1.0,0.0,{},1674415305019.0,1674415305019.0,3571.0,3571.0,2.004,1.567,1674414847191.0,1674415308590.0,,,,,,,,2,no_count,,,,,,,,,True,False,False,False,False,False,False,False,False,False,True,1.0,0.0,0.0,0.0,1.0,1.0,"{'si': 4.0, 'ke': 1.0, 'to': 5.0, 'hu': 3.0, 'na': 2.0}",1,1,1.0,0.7835,2.7875,8
15728,63cd8cd058c4334a66b047ef,run1,quiz,True,196.0,,,,196.0,63cc988c2a276a3b63c222e6,63cd8a33aec0ccabcf0f9ba9,$1.79,1.79,60.0,3.0,7.0,5.0,to-na,tona,1.0,0.0,{},1674415309600.0,1674415309600.0,5081.0,5081.0,1.608,3.473,1674414847191.0,1674415314681.0,,,,,,,,2,no_count,,,,,,,,,True,False,False,False,False,False,False,False,False,False,True,0.0,1.0,0.0,0.0,1.0,2.0,"{'si': 4.0, 'ke': 1.0, 'to': 5.0, 'hu': 3.0, 'na': 2.0}",5-2,5-2,2.0,0.86825,2.4762500000000003,3
15729,63cd8cd458c4334a66b047f0,run1,quiz,True,196.0,,,,196.0,63cc988c2a276a3b63c222e6,63cd8a33aec0ccabcf0f9ba9,$1.82,1.82,61.0,4.0,3.0,5.0,hu,hu,1.0,0.0,{},1674415315691.0,1674415315691.0,2823.0,2823.0,1.614,1.209,1674414847191.0,1674415318514.0,,,,,,,,2,no_count,,,,,,,,,True,False,False,False,False,False,False,False,False,False,True,1.0,0.0,0.0,0.0,1.0,1.0,"{'si': 4.0, 'ke': 1.0, 'to': 5.0, 'hu': 3.0, 'na': 2.0}",3,3,1.0,0.6045,2.2185,6
15730,63cd8cda58c4334a66b047f1,run1,quiz,True,196.0,,,,196.0,63cc988c2a276a3b63c222e6,63cd8a33aec0ccabcf0f9ba9,$1.85,1.85,62.0,5.0,6.0,5.0,to-ke,toke,1.0,0.0,{},1674415319533.0,1674415319533.0,4427.0,4427.0,2.567,1.86,1674414847191.0,1674415323960.0,,,,,,,,2,no_count,,,,,,,,,True,False,False,False,False,False,False,False,False,False,True,0.0,1.0,0.0,0.0,1.0,2.0,"{'si': 4.0, 'ke': 1.0, 'to': 5.0, 'hu': 3.0, 'na': 2.0}",5-1,5-1,2.0,0.465,3.032,4
15731,63cd8cde58c4334a66b047f2,run1,quiz,True,196.0,,,,196.0,63cc988c2a276a3b63c222e6,63cd8a33aec0ccabcf0f9ba9,$1.88,1.88,63.0,6.0,4.0,5.0,si,si,1.0,0.0,{},1674415324966.0,1674415324966.0,3342.0,3342.0,1.974,1.368,1674414847191.0,1674415328308.0,,,,,,,,2,no_count,,,,,,,,,True,False,False,False,False,False,False,False,False,False,True,1.0,0.0,0.0,0.0,1.0,1.0,"{'si': 4.0, 'ke': 1.0, 'to': 5.0, 'hu': 3.0, 'na': 2.0}",4,4,1.0,0.684,2.658,6
15732,63cd8ce258c4334a66b047f3,run1,quiz,True,196.0,,,,196.0,63cc988c2a276a3b63c222e6,63cd8a33aec0ccabcf0f9ba9,$1.91,1.91,64.0,0.0,3.0,5.0,hu,hu,1.0,0.0,{},1674415329326.0,1674415329326.0,2440.0,2440.0,1.167,1.273,1674414847191.0,1674415331766.0,,,,,,,,2,no_count,,,,,,,,,True,False,False,False,False,False,False,False,False,False,True,1.0,0.0,0.0,0.0,1.0,1.0,"{'si': 4.0, 'ke': 1.0, 'to': 5.0, 'hu': 3.0, 'na': 2.0}",3,3,1.0,0.6365,1.8035,7
15793,63cd912d58c4334a66b04848,run1,quiz,False,197.0,,,,197.0,63cc988c2a276a3b63c222e6,63cd90bf29f960a6dfa33969,$0.09,0.09,3.0,0.0,1.0,5.0,su,su,1.0,0.0,{},1674416427863.0,1674416427863.0,2087.0,2087.0,1.21,0.877,1674416405952.0,1674416429950.0,,,,,,,,2,no_syntax,,,,,,,,,False,True,False,False,False,False,False,False,False,False,True,1.0,0.0,0.0,0.0,1.0,1.0,"{'su': 1.0, 'ka': 2.0, 'hi-no': 3.0, 'hi-ka': 4.0, 'hi': 5.0, 'no': 6.0, 'hi-su': 7.0, 'te': 8.0, 'no-hi': 9.0, 'hi-te': 10.0}",1,1,1.0,0.4385,1.6484999999999999,0
15798,63cd913058c4334a66b0484e,run1,quiz,False,197.0,,,,197.0,63cc988c2a276a3b63c222e6,63cd90bf29f960a6dfa33969,$0.12,0.12,4.0,1.0,2.0,5.0,ka,ka,1.0,0.0,{},1674416430954.0,1674416430954.0,1515.0,1515.0,0.93,0.585,1674416405952.0,1674416432470.0,,,,,,,,2,no_syntax,,,,,,,,,False,True,False,False,False,False,False,False,False,False,True,1.0,0.0,0.0,0.0,1.0,1.0,"{'su': 1.0, 'ka': 2.0, 'hi-no': 3.0, 'hi-ka': 4.0, 'hi': 5.0, 'no': 6.0, 'hi-su': 7.0, 'te': 8.0, 'no-hi': 9.0, 'hi-te': 10.0}",2,2,1.0,0.2925,1.2225000000000001,0
15800,63cd913258c4334a66b04852,run1,quiz,False,198.0,,,,198.0,63cc988c2a276a3b63c222e6,63cd90c30e1b3e2d0512253c,$0.09,0.09,3.0,0.0,1.0,5.0,se,se,1.0,0.0,{},1674416432788.0,1674416432788.0,1203.0,1203.0,0.861,0.342,1674416412601.0,1674416433991.0,,,,,,,,2,no_syntax,,,,,,,,,False,True,False,False,False,False,False,False,False,False,True,1.0,0.0,0.0,0.0,1.0,1.0,"{'se': 1.0, 'se-ko': 2.0, 'se-hi': 3.0, 'ta-se': 4.0, 'se-nu': 5.0, 'ta': 6.0, 'nu': 7.0, 'se-ta': 8.0, 'ko': 9.0, 'hi': 10.0}",1,1,1.0,0.171,1.032,0
15802,63cd913458c4334a66b04855,run1,quiz,False,198.0,,,,198.0,63cc988c2a276a3b63c222e6,63cd90c30e1b3e2d0512253c,$0.12,0.12,4.0,1.0,2.0,5.0,se-ko,seko,1.0,0.0,{},1674416435003.0,1674416435003.0,1182.0,1182.0,0.446,0.736,1674416412601.0,1674416436185.0,,,,,,,,2,no_syntax,,,,,,,,,False,True,False,False,False,False,False,False,False,False,True,1.0,0.0,0.0,0.0,1.0,1.0,"{'se': 1.0, 'se-ko': 2.0, 'se-hi': 3.0, 'ta-se': 4.0, 'se-nu': 5.0, 'ta': 6.0, 'nu': 7.0, 'se-ta': 8.0, 'ko': 9.0, 'hi': 10.0}",2,1-9,2.0,0.184,0.63,0
15811,63cd913b58c4334a66b04863,run1,quiz,False,201.0,,,,201.0,63cc988c2a276a3b63c222e6,63cd90c104ce9aaee32c8ab4,$0.09,0.09,3.0,0.0,1.0,5.0,tu,tu,1.0,0.0,{},1674416442334.0,1674416442334.0,1693.0,1693.0,1.301,0.392,1674416412339.0,1674416444027.0,,,,,,,,2,control,,,,,,,,,True,True,False,False,False,False,False,False,False,False,True,1.0,0.0,0.0,0.0,1.0,1.0,"{'tu': 1.0, 'ni': 2.0, 'sa': 3.0, 'he': 4.0, 'ko': 5.0}",1,1,1.0,0.196,1.4969999999999999,0
