,_id,iterationName,eventType,finalCount,gameID,workerID,assignmentID,hitID,prolificID,studyID,sessionID,score,totalScore,trialNum,sectionTrial,cardinality,base,target,response,correct,take,distractions,trialStartTime,takeStartTime,trialTime,takeTime,RT,writingTime,initTime,endTime,gender,age,comments,understood,totalLength,distracted,distractedGame,failedGame,failedOutlier,complete,nonsenseGame
2,61e0506daa09f84b60e4b033,run1,tutorial,False,G2,,,,608926794eed2203be5574ee,61df8999cc7c1c6984f5f11d,61e05001cad36d19f0c15718,$0,0.0,1.0,1.0,1.0,2,no,no,1.0,0.0,{},1642090599236.0,1642090599236.0,5606.0,5606.0,4094,1512.0,1642090597389.0,1642090604842.0,,,,,,False,False,False,False,True,False
3,61e05071aa09f84b60e4b034,run1,quiz,False,G2,,,,608926794eed2203be5574ee,61df8999cc7c1c6984f5f11d,61e05001cad36d19f0c15718,$0.03,3.0,1.0,1.0,1.0,2,no,no,1.0,0.0,{},1642090605849.0,1642090605849.0,3376.0,3376.0,1863,1513.0,1642090597389.0,1642090609225.0,,,,,,False,False,False,False,True,False
5,61e05076aa09f84b60e4b036,run1,tutorial,False,G2,,,,608926794eed2203be5574ee,61df8999cc7c1c6984f5f11d,61e05001cad36d19f0c15718,$0.03,3.0,2.0,2.0,2.0,2,ta,ta,1.0,0.0,{},1642090610232.0,1642090610232.0,3697.0,3697.0,2049,1648.0,1642090597389.0,1642090613929.0,,,,,,False,False,False,False,True,False
7,61e0507caa09f84b60e4b038,run1,quiz,False,G2,,,,608926794eed2203be5574ee,61df8999cc7c1c6984f5f11d,61e05001cad36d19f0c15718,$0.06,6.0,2.0,2.0,2.0,2,ta,ta,1.0,0.0,{},1642090614939.0,1642090614939.0,4918.0,4918.0,3287,1631.0,1642090597389.0,1642090619858.0,,,,,,False,False,False,False,True,False
8,61e05080aa09f84b60e4b039,run1,tutorial,False,G3,,,,60e87324309700b7d549d491,61df8999cc7c1c6984f5f11d,61e0501bfd26a345e8c26caa,$0,0.0,1.0,1.0,1.0,5,ti,ti,1.0,0.0,{},1642090621128.0,1642090621128.0,3657.0,3657.0,2783,874.0,1642090619434.0,1642090624785.0,,,,,,False,False,False,False,True,False
9,61e05080aa09f84b60e4b03a,run1,quiz,False,G2,,,,608926794eed2203be5574ee,61df8999cc7c1c6984f5f11d,61e05001cad36d19f0c15718,$0.09,9.0,3.0,1.0,1.0,2,no,no,1.0,0.0,{},1642090620865.0,1642090620865.0,3472.0,3472.0,1950,1522.0,1642090597389.0,1642090624337.0,,,,,,False,False,False,False,True,False
10,61e05082aa09f84b60e4b03b,run1,quiz,False,G3,,,,60e87324309700b7d549d491,61df8999cc7c1c6984f5f11d,61e0501bfd26a345e8c26caa,$0.03,3.0,1.0,1.0,1.0,5,ti,ti,1.0,0.0,{},1642090625790.0,1642090625790.0,1421.0,1421.0,827,594.0,1642090619434.0,1642090627211.0,,,,,,False,False,False,False,True,False
12,61e05085aa09f84b60e4b03d,run1,quiz,False,G2,,,,608926794eed2203be5574ee,61df8999cc7c1c6984f5f11d,61e05001cad36d19f0c15718,$0.12,12.0,4.0,2.0,2.0,2,ta,ta,1.0,0.0,{},1642090625355.0,1642090625355.0,3430.0,3430.0,1902,1528.0,1642090597389.0,1642090628785.0,,,,,,False,False,False,False,True,False
14,61e05085aa09f84b60e4b03f,run1,tutorial,False,G3,,,,60e87324309700b7d549d491,61df8999cc7c1c6984f5f11d,61e0501bfd26a345e8c26caa,$0.03,3.0,2.0,2.0,2.0,5,nu,nu,1.0,0.0,{},1642090628220.0,1642090628220.0,1964.0,1964.0,1092,872.0,1642090619434.0,1642090630184.0,,,,,,False,False,False,False,True,False
16,61e05088aa09f84b60e4b041,run1,quiz,False,G3,,,,60e87324309700b7d549d491,61df8999cc7c1c6984f5f11d,61e0501bfd26a345e8c26caa,$0.06,6.0,2.0,2.0,2.0,5,nu,nu,1.0,0.0,{},1642090631187.0,1642090631187.0,1493.0,1493.0,701,792.0,1642090619434.0,1642090632681.0,,,,,,False,False,False,False,True,False
18,61e0508baa09f84b60e4b043,run1,tutorial,False,G5,,,,5e19e3a846ef8226677f05ab,61df8999cc7c1c6984f5f11d,61e0502b5d5c43ac54465f14,$0,0.0,1.0,1.0,1.0,4,na,na,1.0,0.0,{},1642090630413.0,1642090630413.0,3497.0,3497.0,2279,1218.0,1642090628729.0,1642090633910.0,,,,,,False,False,False,False,True,False
19,61e0508caa09f84b60e4b044,run1,quiz,False,G3,,,,60e87324309700b7d549d491,61df8999cc7c1c6984f5f11d,61e0501bfd26a345e8c26caa,$0.09,9.0,3.0,1.0,1.0,5,ti,ti,1.0,0.0,{},1642090633684.0,1642090633684.0,3150.0,3150.0,2364,786.0,1642090619434.0,1642090636834.0,,,,,,False,False,False,False,True,False
21,61e0508eaa09f84b60e4b046,run1,quiz,False,G5,,,,5e19e3a846ef8226677f05ab,61df8999cc7c1c6984f5f11d,61e0502b5d5c43ac54465f14,$0.03,3.0,1.0,1.0,1.0,4,na,na,1.0,0.0,{},1642090634919.0,1642090634919.0,2014.0,2014.0,1276,738.0,1642090628729.0,1642090636933.0,,,,,,False,False,False,False,True,False
23,61e0508faa09f84b60e4b048,run1,quiz,False,G3,,,,60e87324309700b7d549d491,61df8999cc7c1c6984f5f11d,61e0501bfd26a345e8c26caa,$0.12,12.0,4.0,2.0,2.0,5,nu,nu,1.0,0.0,{},1642090637845.0,1642090637845.0,1504.0,1504.0,877,627.0,1642090619434.0,1642090639349.0,,,,,,False,False,False,False,True,False
25,61e05091aa09f84b60e4b04a,run1,tutorial,False,G5,,,,5e19e3a846ef8226677f05ab,61df8999cc7c1c6984f5f11d,61e0502b5d5c43ac54465f14,$0.03,3.0,2.0,2.0,2.0,4,ki,ki,1.0,0.0,{},1642090637942.0,1642090637942.0,2151.0,2151.0,1054,1097.0,1642090628729.0,1642090640093.0,,,,,,False,False,False,False,True,False
26,61e05093aa09f84b60e4b04b,run1,tutorial,False,G3,,,,60e87324309700b7d549d491,61df8999cc7c1c6984f5f11d,61e0501bfd26a345e8c26caa,$0.12,12.0,5.0,3.0,3.0,5,he,he,1.0,0.0,{},1642090640354.0,1642090640354.0,3045.0,3045.0,2499,546.0,1642090619434.0,1642090643399.0,,,,,,False,False,False,False,True,False
27,61e05093aa09f84b60e4b04c,run1,quiz,False,G5,,,,5e19e3a846ef8226677f05ab,61df8999cc7c1c6984f5f11d,61e0502b5d5c43ac54465f14,$0.06,6.0,2.0,2.0,2.0,4,ki,ki,1.0,0.0,{},1642090641098.0,1642090641098.0,1083.0,1083.0,410,673.0,1642090628729.0,1642090642181.0,,,,,,False,False,False,False,True,False
28,61e05094aa09f84b60e4b04d,run1,tutorial,False,G2,,,,608926794eed2203be5574ee,61df8999cc7c1c6984f5f11d,61e05001cad36d19f0c15718,$0.12,12.0,5.0,3.0,3.0,2,ta-no,tano,1.0,0.0,{},1642090629791.0,1642090629791.0,14074.0,14074.0,5668,8406.0,1642090597389.0,1642090643865.0,,,,,,False,False,False,False,True,False
30,61e05095aa09f84b60e4b04f,run1,quiz,False,G5,,,,5e19e3a846ef8226677f05ab,61df8999cc7c1c6984f5f11d,61e0502b5d5c43ac54465f14,$0.09,9.0,3.0,1.0,1.0,4,na,na,1.0,0.0,{},1642090643191.0,1642090643191.0,1502.0,1502.0,1077,425.0,1642090628729.0,1642090644693.0,,,,,,False,False,False,False,True,False
31,61e05097aa09f84b60e4b050,run1,quiz,False,G3,,,,60e87324309700b7d549d491,61df8999cc7c1c6984f5f11d,61e0501bfd26a345e8c26caa,$0.15,15.0,5.0,3.0,3.0,5,he,he,1.0,0.0,{},1642090644415.0,1642090644415.0,3035.0,3035.0,2652,383.0,1642090619434.0,1642090647450.0,,,,,,False,False,False,False,True,False
33,61e05098aa09f84b60e4b052,run1,tutorial,False,G6,,,,5aff493f331e8100018f130d,61df8999cc7c1c6984f5f11d,61e0502c337b071611866160,$0,0.0,1.0,1.0,1.0,4,nu,nu,1.0,0.0,{},1642090639560.0,1642090639560.0,7518.0,7518.0,4568,2950.0,1642090636188.0,1642090647079.0,,,,,,False,False,False,False,True,False
34,61e05098aa09f84b60e4b053,run1,quiz,False,G5,,,,5e19e3a846ef8226677f05ab,61df8999cc7c1c6984f5f11d,61e0502b5d5c43ac54465f14,$0.12,12.0,4.0,2.0,2.0,4,ki,ki,1.0,0.0,{},1642090645696.0,1642090645696.0,1725.0,1725.0,1244,481.0,1642090628729.0,1642090647421.0,,,,,,False,False,False,False,True,False
35,61e05099aa09f84b60e4b054,run1,quiz,False,G3,,,,60e87324309700b7d549d491,61df8999cc7c1c6984f5f11d,61e0501bfd26a345e8c26caa,$0.18,18.0,6.0,1.0,1.0,5,ti,ti,1.0,0.0,{},1642090648454.0,1642090648454.0,1638.0,1638.0,1133,505.0,1642090619434.0,1642090650092.0,,,,,,False,False,False,False,True,False
36,61e0509aaa09f84b60e4b055,run1,quiz,False,G2,,,,608926794eed2203be5574ee,61df8999cc7c1c6984f5f11d,61e05001cad36d19f0c15718,$0.15,15.0,5.0,3.0,3.0,2,ta-no,tano,1.0,0.0,{},1642090644871.0,1642090644871.0,5434.0,5434.0,2857,2577.0,1642090597389.0,1642090650305.0,,,,,,False,False,False,False,True,False
38,61e0509baa09f84b60e4b057,run1,quiz,False,G3,,,,60e87324309700b7d549d491,61df8999cc7c1c6984f5f11d,61e0501bfd26a345e8c26caa,$0.21,21.0,7.0,2.0,2.0,5,nu,nu,1.0,0.0,{},1642090651095.0,1642090651095.0,743.0,743.0,357,386.0,1642090619434.0,1642090651838.0,,,,,,False,False,False,False,True,False
39,61e0509baa09f84b60e4b058,run1,tutorial,False,G5,,,,5e19e3a846ef8226677f05ab,61df8999cc7c1c6984f5f11d,61e0502b5d5c43ac54465f14,$0.12,12.0,5.0,3.0,3.0,4,tu,tu,1.0,0.0,{},1642090648432.0,1642090648432.0,2045.0,2045.0,1244,801.0,1642090628729.0,1642090650477.0,,,,,,False,False,False,False,True,False
41,61e0509eaa09f84b60e4b05a,run1,quiz,False,G5,,,,5e19e3a846ef8226677f05ab,61df8999cc7c1c6984f5f11d,61e0502b5d5c43ac54465f14,$0.15,15.0,5.0,3.0,3.0,4,tu,tu,1.0,0.0,{},1642090651486.0,1642090651486.0,1374.0,1374.0,894,480.0,1642090628729.0,1642090652860.0,,,,,,False,False,False,False,True,False
42,61e0509eaa09f84b60e4b05b,run1,quiz,False,G3,,,,60e87324309700b7d549d491,61df8999cc7c1c6984f5f11d,61e0501bfd26a345e8c26caa,$0.24,24.0,8.0,3.0,3.0,5,he,he,1.0,0.0,{},1642090652841.0,1642090652841.0,1640.0,1640.0,1293,347.0,1642090619434.0,1642090654481.0,,,,,,False,False,False,False,True,False
44,61e0509eaa09f84b60e4b05d,run1,tutorial,False,G7,,,,6166d95a22c741fea351f906,61df8999cc7c1c6984f5f11d,61e0503a92a79e2ccaa7c81c,$0,0.0,1.0,1.0,1.0,5,ne,ne,1.0,0.0,{},1642090628632.0,1642090628632.0,24188.0,24188.0,22628,1560.0,1642090626149.0,1642090652820.0,,,,,,False,False,False,False,True,False
45,61e050a0aa09f84b60e4b05e,run1,quiz,False,G6,,,,5aff493f331e8100018f130d,61df8999cc7c1c6984f5f11d,61e0502c337b071611866160,$0.03,3.0,1.0,1.0,1.0,4,nu,nu,1.0,0.0,{},1642090648105.0,1642090648105.0,6840.0,6840.0,4315,2525.0,1642090636188.0,1642090654945.0,,,,,,False,False,False,False,True,False
46,61e050a0aa09f84b60e4b05f,run1,quiz,False,G5,,,,5e19e3a846ef8226677f05ab,61df8999cc7c1c6984f5f11d,61e0502b5d5c43ac54465f14,$0.18,18.0,6.0,1.0,1.0,4,na,na,1.0,0.0,{},1642090653870.0,1642090653870.0,1463.0,1463.0,854,609.0,1642090628729.0,1642090655333.0,,,,,,False,False,False,False,True,False
47,61e050a0aa09f84b60e4b060,run1,quiz,False,G2,,,,608926794eed2203be5574ee,61df8999cc7c1c6984f5f11d,61e05001cad36d19f0c15718,$0.18,18.0,6.0,1.0,1.0,2,no,no,1.0,0.0,{},1642090651310.0,1642090651310.0,4970.0,4971.0,3001,1970.0,1642090597389.0,1642090656281.0,,,,,,False,False,False,False,True,False
49,61e050a2aa09f84b60e4b062,run1,quiz,False,G7,,,,6166d95a22c741fea351f906,61df8999cc7c1c6984f5f11d,61e0503a92a79e2ccaa7c81c,$0.03,3.0,1.0,1.0,1.0,5,ne,ne,1.0,0.0,{},1642090653826.0,1642090653826.0,2815.0,2815.0,1823,992.0,1642090626149.0,1642090656641.0,,,,,,False,False,False,False,True,False
50,61e050a2aa09f84b60e4b063,run1,quiz,False,G5,,,,5e19e3a846ef8226677f05ab,61df8999cc7c1c6984f5f11d,61e0502b5d5c43ac54465f14,$0.21,21.0,7.0,2.0,2.0,4,ki,ki,1.0,0.0,{},1642090656346.0,1642090656346.0,1371.0,1371.0,858,513.0,1642090628729.0,1642090657717.0,,,,,,False,False,False,False,True,False
51,61e050a5aa09f84b60e4b064,run1,quiz,False,G5,,,,5e19e3a846ef8226677f05ab,61df8999cc7c1c6984f5f11d,61e0502b5d5c43ac54465f14,$0.24,24.0,8.0,3.0,3.0,4,tu,tu,1.0,0.0,{},1642090658731.0,1642090658731.0,1402.0,1402.0,753,649.0,1642090628729.0,1642090660133.0,,,,,,False,False,False,False,True,False
52,61e050a5aa09f84b60e4b065,run1,quiz,False,G2,,,,608926794eed2203be5574ee,61df8999cc7c1c6984f5f11d,61e05001cad36d19f0c15718,$0.21,21.0,7.0,2.0,2.0,2,ta,ta,1.0,0.0,{},1642090657285.0,1642090657285.0,4012.0,4012.0,1874,2138.0,1642090597389.0,1642090661297.0,,,,,,False,False,False,False,True,False
53,61e050a5aa09f84b60e4b066,run1,tutorial,False,G7,,,,6166d95a22c741fea351f906,61df8999cc7c1c6984f5f11d,61e0503a92a79e2ccaa7c81c,$0.03,3.0,2.0,2.0,2.0,5,to,to,1.0,0.0,{},1642090657644.0,1642090657644.0,2636.0,2636.0,1783,853.0,1642090626149.0,1642090660280.0,,,,,,False,False,False,False,True,False
55,61e050a7aa09f84b60e4b068,run1,tutorial,False,G6,,,,5aff493f331e8100018f130d,61df8999cc7c1c6984f5f11d,61e0502c337b071611866160,$0.03,3.0,2.0,2.0,2.0,4,he,he,1.0,0.0,{},1642090655966.0,1642090655966.0,5767.0,5767.0,3270,2497.0,1642090636188.0,1642090661733.0,,,,,,False,False,False,False,True,False
56,61e050a9aa09f84b60e4b069,run1,quiz,False,G7,,,,6166d95a22c741fea351f906,61df8999cc7c1c6984f5f11d,61e0503a92a79e2ccaa7c81c,$0.06,6.0,2.0,2.0,2.0,5,to,to,1.0,0.0,{},1642090661282.0,1642090661282.0,2462.0,2462.0,1325,1137.0,1642090626149.0,1642090663744.0,,,,,,False,False,False,False,True,False
57,61e050aaaa09f84b60e4b06a,run1,tutorial,False,G5,,,,5e19e3a846ef8226677f05ab,61df8999cc7c1c6984f5f11d,61e0502b5d5c43ac54465f14,$0.24,24.0,9.0,4.0,4.0,4,se,se,1.0,0.0,{},1642090661136.0,1642090661136.0,3661.0,3661.0,2948,713.0,1642090628729.0,1642090664797.0,,,,,,False,False,False,False,True,False
59,61e050aaaa09f84b60e4b06c,run1,quiz,False,G2,,,,608926794eed2203be5574ee,61df8999cc7c1c6984f5f11d,61e05001cad36d19f0c15718,$0.24,24.0,8.0,3.0,3.0,2,ta-no,tano,1.0,0.0,{},1642090662302.0,1642090662302.0,3779.0,3779.0,1620,2159.0,1642090597389.0,1642090666081.0,,,,,,False,False,False,False,True,False
60,61e050acaa09f84b60e4b06d,run1,quiz,False,G5,,,,5e19e3a846ef8226677f05ab,61df8999cc7c1c6984f5f11d,61e0502b5d5c43ac54465f14,$0.27,27.0,9.0,4.0,4.0,4,se,se,1.0,0.0,{},1642090665800.0,1642090665800.0,1149.0,1149.0,604,545.0,1642090628729.0,1642090666949.0,,,,,,False,False,False,False,True,False
61,61e050acaa09f84b60e4b06e,run1,quiz,False,G6,,,,5aff493f331e8100018f130d,61df8999cc7c1c6984f5f11d,61e0502c337b071611866160,$0.06,6.0,2.0,2.0,2.0,4,he,he,1.0,0.0,{},1642090662755.0,1642090662755.0,4378.0,4378.0,2600,1778.0,1642090636188.0,1642090667133.0,,,,,,False,False,False,False,True,False
62,61e050acaa09f84b60e4b06f,run1,quiz,False,G7,,,,6166d95a22c741fea351f906,61df8999cc7c1c6984f5f11d,61e0503a92a79e2ccaa7c81c,$0.09,9.0,3.0,1.0,1.0,5,ne,ne,1.0,0.0,{},1642090664747.0,1642090664747.0,2079.0,2079.0,1165,914.0,1642090626149.0,1642090666827.0,,,,,,False,False,False,False,True,False
64,61e050aeaa09f84b60e4b071,run1,quiz,False,G5,,,,5e19e3a846ef8226677f05ab,61df8999cc7c1c6984f5f11d,61e0502b5d5c43ac54465f14,$0.3,30.0,10.0,1.0,1.0,4,na,na,1.0,0.0,{},1642090667952.0,1642090667952.0,1221.0,1221.0,805,416.0,1642090628729.0,1642090669173.0,,,,,,False,False,False,False,True,False
66,61e050afaa09f84b60e4b073,run1,quiz,False,G7,,,,6166d95a22c741fea351f906,61df8999cc7c1c6984f5f11d,61e0503a92a79e2ccaa7c81c,$0.12,12.0,4.0,2.0,2.0,5,to,to,1.0,0.0,{},1642090667829.0,1642090667829.0,1977.0,1977.0,1006,971.0,1642090626149.0,1642090669806.0,,,,,,False,False,False,False,True,False
67,61e050b0aa09f84b60e4b074,run1,quiz,False,G5,,,,5e19e3a846ef8226677f05ab,61df8999cc7c1c6984f5f11d,61e0502b5d5c43ac54465f14,$0.3,30.0,11.0,2.0,2.0,4,ki,ke,0.0,0.0,{},1642090670177.0,1642090670177.0,1277.0,1277.0,316,961.0,1642090628729.0,1642090671454.0,,,,,,False,False,False,False,True,False
69,61e050b3aa09f84b60e4b076,run1,quiz,False,G6,,,,5aff493f331e8100018f130d,61df8999cc7c1c6984f5f11d,61e0502c337b071611866160,$0.09,9.0,3.0,1.0,1.0,4,nu,nu,1.0,0.0,{},1642090668149.0,1642090668149.0,5884.0,5884.0,3479,2405.0,1642090636188.0,1642090674033.0,,,,,,False,False,False,False,True,False
71,61e050b4aa09f84b60e4b078,run1,tutorial,False,G8,,,,5ec43aa746bca211b1c11016,61df8999cc7c1c6984f5f11d,61e0502413f7285ab3af7ba5,$0,0.0,1.0,1.0,1.0,5,ho,ho,1.0,0.0,{},1642090666039.0,1642090666039.0,10469.0,10469.0,8319,2150.0,1642090662014.0,1642090676509.0,,,,,,False,False,False,False,True,False
72,61e050b4aa09f84b60e4b079,run1,tutorial,False,G7,,,,6166d95a22c741fea351f906,61df8999cc7c1c6984f5f11d,61e0503a92a79e2ccaa7c81c,$0.12,12.0,5.0,3.0,3.0,5,ha,ha,1.0,0.0,{},1642090670808.0,1642090670808.0,4428.0,4428.0,3192,1236.0,1642090626149.0,1642090675236.0,,,,,,False,False,False,False,True,False
73,61e050b5aa09f84b60e4b07a,run1,tutorial,False,G3,,,,60e87324309700b7d549d491,61df8999cc7c1c6984f5f11d,61e0501bfd26a345e8c26caa,$0.24,24.0,9.0,4.0,4.0,5,so,so,1.0,0.0,{},1642090655485.0,1642090655485.0,21835.0,21835.0,21288,547.0,1642090619434.0,1642090677320.0,,,,,,False,False,False,False,True,False
75,61e050b7aa09f84b60e4b07c,run1,quiz,False,G5,,,,5e19e3a846ef8226677f05ab,61df8999cc7c1c6984f5f11d,61e0502b5d5c43ac54465f14,$0.3,30.0,11.0,2.0,2.0,4,ki,ke,0.0,1.0,{},1642090670177.0,1642090671457.0,7781.0,6501.0,4892,1609.0,1642090628729.0,1642090677958.0,,,,,,False,False,False,False,True,False
76,61e050b7aa09f84b60e4b07d,run1,quiz,False,G3,,,,60e87324309700b7d549d491,61df8999cc7c1c6984f5f11d,61e0501bfd26a345e8c26caa,$0.27,27.0,9.0,4.0,4.0,5,so,so,1.0,0.0,{},1642090678323.0,1642090678323.0,1221.0,1221.0,844,377.0,1642090619434.0,1642090679544.0,,,,,,False,False,False,False,True,False
79,61e050b8aa09f84b60e4b080,run1,quiz,False,G5,,,,5e19e3a846ef8226677f05ab,61df8999cc7c1c6984f5f11d,61e0502b5d5c43ac54465f14,$0.31,31.0,11.0,2.0,2.0,4,ki,ki,1.0,2.0,{},1642090670177.0,1642090677959.0,9157.0,1375.0,862,513.0,1642090628729.0,1642090679334.0,,,,,,False,False,False,False,True,False
80,61e050b8aa09f84b60e4b081,run1,quiz,False,G6,,,,5aff493f331e8100018f130d,61df8999cc7c1c6984f5f11d,61e0502c337b071611866160,$0.12,12.0,4.0,2.0,2.0,4,he,he,1.0,0.0,{},1642090675058.0,1642090675058.0,4275.0,4275.0,2255,2020.0,1642090636188.0,1642090679333.0,,,,,,False,False,False,False,True,False
81,61e050baaa09f84b60e4b082,run1,quiz,False,G3,,,,60e87324309700b7d549d491,61df8999cc7c1c6984f5f11d,61e0501bfd26a345e8c26caa,$0.3,30.0,10.0,1.0,1.0,5,ti,ti,1.0,0.0,{},1642090680548.0,1642090680548.0,1758.0,1758.0,919,839.0,1642090619434.0,1642090682306.0,,,,,,False,False,False,False,True,False
82,61e050baaa09f84b60e4b083,run1,quiz,False,G8,,,,5ec43aa746bca211b1c11016,61df8999cc7c1c6984f5f11d,61e0502413f7285ab3af7ba5,$0.03,3.0,1.0,1.0,1.0,5,ho,ho,1.0,0.0,{},1642090677527.0,1642090677527.0,4670.0,4670.0,3454,1216.0,1642090662014.0,1642090682197.0,,,,,,False,False,False,False,True,False
83,61e050bbaa09f84b60e4b084,run1,quiz,False,G5,,,,5e19e3a846ef8226677f05ab,61df8999cc7c1c6984f5f11d,61e0502b5d5c43ac54465f14,$0.34,34.0,12.0,3.0,3.0,4,tu,tu,1.0,0.0,{},1642090680337.0,1642090680337.0,1862.0,1862.0,996,866.0,1642090628729.0,1642090682199.0,,,,,,False,False,False,False,True,False
85,61e050bdaa09f84b60e4b086,run1,quiz,False,G5,,,,5e19e3a846ef8226677f05ab,61df8999cc7c1c6984f5f11d,61e0502b5d5c43ac54465f14,$0.37,37.0,13.0,4.0,4.0,4,se,se,1.0,0.0,{},1642090683201.0,1642090683201.0,1061.0,1061.0,412,649.0,1642090628729.0,1642090684262.0,,,,,,False,False,False,False,True,False
86,61e050bdaa09f84b60e4b087,run1,quiz,False,G3,,,,60e87324309700b7d549d491,61df8999cc7c1c6984f5f11d,61e0501bfd26a345e8c26caa,$0.33,33.0,11.0,2.0,2.0,5,nu,nu,1.0,0.0,{},1642090683310.0,1642090683310.0,2481.0,2481.0,1666,815.0,1642090619434.0,1642090685791.0,,,,,,False,False,False,False,True,False
90,61e050c0aa09f84b60e4b08b,run1,quiz,False,G3,,,,60e87324309700b7d549d491,61df8999cc7c1c6984f5f11d,61e0501bfd26a345e8c26caa,$0.36,36.0,12.0,3.0,3.0,5,he,he,1.0,0.0,{},1642090686795.0,1642090686795.0,1848.0,1848.0,934,914.0,1642090619434.0,1642090688644.0,,,,,,False,False,False,False,True,False
91,61e050c1aa09f84b60e4b08c,run1,tutorial,False,G6,,,,5aff493f331e8100018f130d,61df8999cc7c1c6984f5f11d,61e0502c337b071611866160,$0.12,12.0,5.0,3.0,3.0,4,sa,sa,1.0,0.0,{},1642090680345.0,1642090680345.0,8344.0,8344.0,3454,4890.0,1642090636188.0,1642090688689.0,,,,,,False,False,False,False,True,False
92,61e050c2aa09f84b60e4b08d,run1,tutorial,False,G5,,,,5e19e3a846ef8226677f05ab,61df8999cc7c1c6984f5f11d,61e0502b5d5c43ac54465f14,$0.37,37.0,14.0,5.0,5.0,4,se-na,sena,1.0,0.0,{},1642090685265.0,1642090685265.0,3789.0,3789.0,1924,1865.0,1642090628729.0,1642090689054.0,,,,,,False,False,False,False,True,False
93,61e050c2aa09f84b60e4b08e,run1,quiz,False,G3,,,,60e87324309700b7d549d491,61df8999cc7c1c6984f5f11d,61e0501bfd26a345e8c26caa,$0.39,39.0,13.0,4.0,4.0,5,so,so,1.0,0.0,{},1642090689647.0,1642090689647.0,1445.0,1445.0,256,1189.0,1642090619434.0,1642090691092.0,,,,,,False,False,False,False,True,False
96,61e050c4aa09f84b60e4b091,run1,tutorial,False,G8,,,,5ec43aa746bca211b1c11016,61df8999cc7c1c6984f5f11d,61e0502413f7285ab3af7ba5,$0.03,3.0,2.0,2.0,2.0,5,ne,ne,1.0,0.0,{},1642090683223.0,1642090683223.0,9134.0,9134.0,6895,2239.0,1642090662014.0,1642090692357.0,,,,,,False,False,False,False,True,False
98,61e050c5aa09f84b60e4b093,run1,quiz,False,G5,,,,5e19e3a846ef8226677f05ab,61df8999cc7c1c6984f5f11d,61e0502b5d5c43ac54465f14,$0.4,40.0,14.0,5.0,5.0,4,se-na,sena,1.0,0.0,{},1642090690057.0,1642090690057.0,1893.0,1893.0,797,1096.0,1642090628729.0,1642090691950.0,,,,,,False,False,False,False,True,False
100,61e050c6aa09f84b60e4b095,run1,quiz,False,G6,,,,5aff493f331e8100018f130d,61df8999cc7c1c6984f5f11d,61e0502c337b071611866160,$0.15,15.0,5.0,3.0,3.0,4,sa,sa,1.0,0.0,{},1642090689705.0,1642090689705.0,3408.0,3408.0,2124,1284.0,1642090636188.0,1642090693113.0,,,,,,False,False,False,False,True,False
102,61e050c7aa09f84b60e4b097,run1,quiz,False,G5,,,,5e19e3a846ef8226677f05ab,61df8999cc7c1c6984f5f11d,61e0502b5d5c43ac54465f14,$0.43,43.0,15.0,1.0,1.0,4,na,na,1.0,0.0,{},1642090692952.0,1642090692952.0,926.0,926.0,509,417.0,1642090628729.0,1642090693878.0,,,,,,False,False,False,False,True,False
103,61e050c7aa09f84b60e4b098,run1,tutorial,False,G3,,,,60e87324309700b7d549d491,61df8999cc7c1c6984f5f11d,61e0501bfd26a345e8c26caa,$0.39,39.0,14.0,5.0,5.0,5,ka,ka,1.0,0.0,{},1642090692096.0,1642090692096.0,4074.0,4074.0,3591,483.0,1642090619434.0,1642090696170.0,,,,,,False,False,False,False,True,False
105,61e050c8aa09f84b60e4b09a,run1,quiz,False,G5,,,,5e19e3a846ef8226677f05ab,61df8999cc7c1c6984f5f11d,61e0502b5d5c43ac54465f14,$0.46,46.0,16.0,2.0,2.0,4,ki,ki,1.0,0.0,{},1642090694881.0,1642090694881.0,861.0,861.0,316,545.0,1642090628729.0,1642090695742.0,,,,,,False,False,False,False,True,False
106,61e050c9aa09f84b60e4b09b,run1,quiz,False,G3,,,,60e87324309700b7d549d491,61df8999cc7c1c6984f5f11d,61e0501bfd26a345e8c26caa,$0.42,42.0,14.0,5.0,5.0,5,ka,ka,1.0,0.0,{},1642090697174.0,1642090697174.0,629.0,629.0,258,371.0,1642090619434.0,1642090697803.0,,,,,,False,False,False,False,True,False
107,61e050c9aa09f84b60e4b09c,run1,quiz,False,G8,,,,5ec43aa746bca211b1c11016,61df8999cc7c1c6984f5f11d,61e0502413f7285ab3af7ba5,$0.06,6.0,2.0,2.0,2.0,5,ne,ne,1.0,0.0,{},1642090693365.0,1642090693365.0,4336.0,4336.0,1872,2464.0,1642090662014.0,1642090697701.0,,,,,,False,False,False,False,True,False
110,61e050cbaa09f84b60e4b09f,run1,quiz,False,G5,,,,5e19e3a846ef8226677f05ab,61df8999cc7c1c6984f5f11d,61e0502b5d5c43ac54465f14,$0.49,49.0,17.0,3.0,3.0,4,tu,tu,1.0,0.0,{},1642090696745.0,1642090696745.0,1605.0,1605.0,1156,449.0,1642090628729.0,1642090698350.0,,,,,,False,False,False,False,True,False
111,61e050cbaa09f84b60e4b0a0,run1,quiz,False,G6,,,,5aff493f331e8100018f130d,61df8999cc7c1c6984f5f11d,61e0502c337b071611866160,$0.18,18.0,6.0,1.0,1.0,4,nu,nu,1.0,0.0,{},1642090694130.0,1642090694130.0,4464.0,4464.0,2277,2187.0,1642090636188.0,1642090698594.0,,,,,,False,False,False,False,True,False
112,61e050ccaa09f84b60e4b0a1,run1,quiz,False,G3,,,,60e87324309700b7d549d491,61df8999cc7c1c6984f5f11d,61e0501bfd26a345e8c26caa,$0.45,45.0,15.0,1.0,1.0,5,ti,ti,1.0,0.0,{},1642090698814.0,1642090698814.0,1834.0,1834.0,1234,600.0,1642090619434.0,1642090700648.0,,,,,,False,False,False,False,True,False
115,61e050ceaa09f84b60e4b0a4,run1,quiz,False,G5,,,,5e19e3a846ef8226677f05ab,61df8999cc7c1c6984f5f11d,61e0502b5d5c43ac54465f14,$0.52,52.0,18.0,4.0,4.0,4,se,se,1.0,0.0,{},1642090699357.0,1642090699357.0,1441.0,1441.0,664,777.0,1642090628729.0,1642090700798.0,,,,,,False,False,False,False,True,False
116,61e050ceaa09f84b60e4b0a5,run1,quiz,False,G3,,,,60e87324309700b7d549d491,61df8999cc7c1c6984f5f11d,61e0501bfd26a345e8c26caa,$0.48,48.0,16.0,2.0,2.0,5,nu,nu,1.0,0.0,{},1642090701652.0,1642090701652.0,581.0,581.0,252,329.0,1642090619434.0,1642090702233.0,,,,,,False,False,False,False,True,False
117,61e050ceaa09f84b60e4b0a6,run1,quiz,False,G8,,,,5ec43aa746bca211b1c11016,61df8999cc7c1c6984f5f11d,61e0502413f7285ab3af7ba5,$0.09,9.0,3.0,1.0,1.0,5,ho,ho,1.0,0.0,{},1642090698710.0,1642090698710.0,3726.0,3726.0,2095,1631.0,1642090662014.0,1642090702436.0,,,,,,False,False,False,False,True,False
118,61e050cfaa09f84b60e4b0a7,run1,quiz,False,G3,,,,60e87324309700b7d549d491,61df8999cc7c1c6984f5f11d,61e0501bfd26a345e8c26caa,$0.51,51.0,17.0,3.0,3.0,5,he,he,1.0,0.0,{},1642090703240.0,1642090703240.0,598.0,598.0,288,310.0,1642090619434.0,1642090703838.0,,,,,,False,False,False,False,True,False
120,61e050d0aa09f84b60e4b0a9,run1,quiz,False,G5,,,,5e19e3a846ef8226677f05ab,61df8999cc7c1c6984f5f11d,61e0502b5d5c43ac54465f14,$0.55,55.0,19.0,5.0,5.0,4,se-na,sena,1.0,0.0,{},1642090701801.0,1642090701801.0,1214.0,1214.0,509,705.0,1642090628729.0,1642090703015.0,,,,,,False,False,False,False,True,False
122,61e050d1aa09f84b60e4b0ab,run1,quiz,False,G6,,,,5aff493f331e8100018f130d,61df8999cc7c1c6984f5f11d,61e0502c337b071611866160,$0.21,21.0,7.0,2.0,2.0,4,he,he,1.0,0.0,{},1642090699608.0,1642090699608.0,4478.0,4478.0,2505,1973.0,1642090636188.0,1642090704086.0,,,,,,False,False,False,False,True,False
123,61e050d1aa09f84b60e4b0ac,run1,quiz,False,G3,,,,60e87324309700b7d549d491,61df8999cc7c1c6984f5f11d,61e0501bfd26a345e8c26caa,$0.54,54.0,18.0,4.0,4.0,5,so,so,1.0,0.0,{},1642090704841.0,1642090704841.0,984.0,984.0,325,659.0,1642090619434.0,1642090705825.0,,,,,,False,False,False,False,True,False
124,61e050d2aa09f84b60e4b0ad,run1,quiz,False,G8,,,,5ec43aa746bca211b1c11016,61df8999cc7c1c6984f5f11d,61e0502413f7285ab3af7ba5,$0.12,12.0,4.0,2.0,2.0,5,ne,ne,1.0,0.0,{},1642090703445.0,1642090703445.0,3185.0,3185.0,1728,1457.0,1642090662014.0,1642090706630.0,,,,,,False,False,False,False,True,False
127,61e050d4aa09f84b60e4b0b0,run1,quiz,False,G3,,,,60e87324309700b7d549d491,61df8999cc7c1c6984f5f11d,61e0501bfd26a345e8c26caa,$0.57,57.0,19.0,5.0,5.0,5,ka,ka,1.0,0.0,{},1642090706827.0,1642090706827.0,1640.0,1640.0,712,928.0,1642090619434.0,1642090708467.0,,,,,,False,False,False,False,True,False
128,61e050d4aa09f84b60e4b0b1,run1,tutorial,False,G5,,,,5e19e3a846ef8226677f05ab,61df8999cc7c1c6984f5f11d,61e0502b5d5c43ac54465f14,$0.55,55.0,20.0,6.0,6.0,4,se-ki,seki,1.0,0.0,{},1642090704017.0,1642090704017.0,3310.0,3310.0,2445,865.0,1642090628729.0,1642090707327.0,,,,,,False,False,False,False,True,False
129,61e050d5aa09f84b60e4b0b2,run1,quiz,False,G6,,,,5aff493f331e8100018f130d,61df8999cc7c1c6984f5f11d,61e0502c337b071611866160,$0.24,24.0,8.0,3.0,3.0,4,sa,sa,1.0,0.0,{},1642090705096.0,1642090705096.0,3258.0,3258.0,1763,1495.0,1642090636188.0,1642090708354.0,,,,,,False,False,False,False,True,False
131,61e050d6aa09f84b60e4b0b4,run1,quiz,False,G7,,,,6166d95a22c741fea351f906,61df8999cc7c1c6984f5f11d,61e0503a92a79e2ccaa7c81c,$0.12,12.0,5.0,3.0,3.0,5,ha,hah,0.0,0.0,{},1642090676238.0,1642090676238.0,32745.0,32745.0,1383,31362.0,1642090626149.0,1642090708983.0,,,,,,False,False,False,False,True,False
132,61e050d7aa09f84b60e4b0b5,run1,quiz,False,G5,,,,5e19e3a846ef8226677f05ab,61df8999cc7c1c6984f5f11d,61e0502b5d5c43ac54465f14,$0.58,58.0,20.0,6.0,6.0,4,se-ki,seki,1.0,0.0,{},1642090708330.0,1642090708330.0,1669.0,1669.0,860,809.0,1642090628729.0,1642090709999.0,,,,,,False,False,False,False,True,False
134,61e050d8aa09f84b60e4b0b7,run1,tutorial,False,G10,,,,5c488d5d30525a000103bc57,61df8999cc7c1c6984f5f11d,61e05034d9819c68472fe83d,$0,0.0,1.0,1.0,1.0,5,no,no,1.0,0.0,{},1642090694179.0,1642090694179.0,18887.0,18887.0,17089,1798.0,1642090690306.0,1642090713066.0,,,,,,False,False,False,False,True,False
135,61e050d9aa09f84b60e4b0b8,run1,quiz,False,G5,,,,5e19e3a846ef8226677f05ab,61df8999cc7c1c6984f5f11d,61e0502b5d5c43ac54465f14,$0.61,61.0,21.0,1.0,1.0,4,na,na,1.0,0.0,{},1642090711002.0,1642090711002.0,829.0,829.0,412,417.0,1642090628729.0,1642090711831.0,,,,,,False,False,False,False,True,False
136,61e050d9aa09f84b60e4b0b9,run1,quiz,False,G7,,,,6166d95a22c741fea351f906,61df8999cc7c1c6984f5f11d,61e0503a92a79e2ccaa7c81c,$0.14,14.0,5.0,3.0,3.0,5,ha,ha,1.0,1.0,{},1642090676238.0,1642090708985.0,35936.0,3189.0,1386,1803.0,1642090626149.0,1642090712174.0,,,,,,False,False,False,False,True,False
138,61e050daaa09f84b60e4b0bb,run1,quiz,False,G5,,,,5e19e3a846ef8226677f05ab,61df8999cc7c1c6984f5f11d,61e0502b5d5c43ac54465f14,$0.64,64.0,22.0,2.0,2.0,4,ki,ki,1.0,0.0,{},1642090712833.0,1642090712833.0,926.0,926.0,285,641.0,1642090628729.0,1642090713759.0,,,,,,False,False,False,False,True,False
142,61e050deaa09f84b60e4b0bf,run1,tutorial,False,G3,,,,60e87324309700b7d549d491,61df8999cc7c1c6984f5f11d,61e0501bfd26a345e8c26caa,$0.57,57.0,20.0,6.0,6.0,5,ka-ti,kati,1.0,0.0,{},1642090709471.0,1642090709471.0,9447.0,9447.0,6230,3217.0,1642090619434.0,1642090718918.0,,,,,,False,False,False,False,True,False
143,61e050deaa09f84b60e4b0c0,run1,quiz,False,G7,,,,6166d95a22c741fea351f906,61df8999cc7c1c6984f5f11d,61e0503a92a79e2ccaa7c81c,$0.17,17.0,6.0,1.0,1.0,5,ne,ne,1.0,0.0,{},1642090713176.0,1642090713176.0,3901.0,3901.0,2501,1400.0,1642090626149.0,1642090717077.0,,,,,,False,False,False,False,True,False
144,61e050deaa09f84b60e4b0c1,run1,quiz,False,G5,,,,5e19e3a846ef8226677f05ab,61df8999cc7c1c6984f5f11d,61e0502b5d5c43ac54465f14,$0.67,67.0,23.0,3.0,3.0,4,tu,tu,1.0,0.0,{},1642090714762.0,1642090714762.0,2796.0,2796.0,316,2480.0,1642090628729.0,1642090717558.0,,,,,,False,False,False,False,True,False
145,61e050dfaa09f84b60e4b0c2,run1,quiz,False,G7,,,,6166d95a22c741fea351f906,61df8999cc7c1c6984f5f11d,61e0503a92a79e2ccaa7c81c,$0.2,20.0,6.0,1.0,1.0,5,ne,ne,1.0,0.0,{},1642090713176.0,1642090713176.0,4595.0,4595.0,2501,2094.0,1642090626149.0,1642090717771.0,,,,,,False,False,False,False,True,False
146,61e050dfaa09f84b60e4b0c3,run1,quiz,False,G10,,,,5c488d5d30525a000103bc57,61df8999cc7c1c6984f5f11d,61e05034d9819c68472fe83d,$0.03,3.0,1.0,1.0,1.0,5,no,no,1.0,0.0,{},1642090714084.0,1642090714084.0,5877.0,5877.0,4549,1328.0,1642090690306.0,1642090719961.0,,,,,,False,False,False,False,True,False
150,61e050e1aa09f84b60e4b0c7,run1,quiz,False,G3,,,,60e87324309700b7d549d491,61df8999cc7c1c6984f5f11d,61e0501bfd26a345e8c26caa,$0.6,60.0,20.0,6.0,6.0,5,ka-ti,kati,1.0,0.0,{},1642090719921.0,1642090719921.0,1843.0,1843.0,930,913.0,1642090619434.0,1642090721764.0,,,,,,False,False,False,False,True,False
151,61e050e1aa09f84b60e4b0c8,run1,tutorial,False,G2,,,,608926794eed2203be5574ee,61df8999cc7c1c6984f5f11d,61e05001cad36d19f0c15718,$0.24,24.0,9.0,4.0,4.0,2,hi,hi,1.0,0.0,{},1642090667087.0,1642090667087.0,54298.0,54298.0,52854,1444.0,1642090597389.0,1642090721385.0,,,,,,False,False,False,False,True,False
153,61e050e2aa09f84b60e4b0ca,run1,quiz,False,G5,,,,5e19e3a846ef8226677f05ab,61df8999cc7c1c6984f5f11d,61e0502b5d5c43ac54465f14,$0.7,70.0,24.0,4.0,4.0,4,se,se,1.0,0.0,{},1642090718561.0,1642090718561.0,2437.0,2437.0,477,1960.0,1642090628729.0,1642090720998.0,,,,,,False,False,False,False,True,False
154,61e050e2aa09f84b60e4b0cb,run1,quiz,False,G7,,,,6166d95a22c741fea351f906,61df8999cc7c1c6984f5f11d,61e0503a92a79e2ccaa7c81c,$0.2,20.0,8.0,3.0,3.0,5,ha,to,0.0,0.0,{},1642090718772.0,1642090718772.0,2260.0,2260.0,1451,809.0,1642090626149.0,1642090721032.0,,,,,,False,False,False,False,True,False
157,61e050e5aa09f84b60e4b0ce,run1,quiz,False,G3,,,,60e87324309700b7d549d491,61df8999cc7c1c6984f5f11d,61e0501bfd26a345e8c26caa,$0.63,63.0,21.0,1.0,1.0,5,ti,ti,1.0,0.0,{},1642090722767.0,1642090722767.0,2498.0,2498.0,802,1696.0,1642090619434.0,1642090725265.0,,,,,,False,False,False,False,True,False
158,61e050e5aa09f84b60e4b0cf,run1,quiz,False,G2,,,,608926794eed2203be5574ee,61df8999cc7c1c6984f5f11d,61e05001cad36d19f0c15718,$0.27,27.0,9.0,4.0,4.0,2,hi,hi,1.0,0.0,{},1642090722390.0,1642090722390.0,2395.0,2395.0,1438,957.0,1642090597389.0,1642090724785.0,,,,,,False,False,False,False,True,False
159,61e050e5aa09f84b60e4b0d0,run1,tutorial,False,G6,,,,5aff493f331e8100018f130d,61df8999cc7c1c6984f5f11d,61e0502c337b071611866160,$0.24,24.0,9.0,4.0,4.0,4,ko,ko,1.0,0.0,{},1642090709376.0,1642090709376.0,14710.0,14710.0,12531,2179.0,1642090636188.0,1642090724086.0,,,,,,False,False,False,False,True,False
161,61e050e5aa09f84b60e4b0d2,run1,tutorial,False,G10,,,,5c488d5d30525a000103bc57,61df8999cc7c1c6984f5f11d,61e05034d9819c68472fe83d,$0.03,3.0,2.0,2.0,2.0,5,ka,ka,1.0,0.0,{},1642090720967.0,1642090720967.0,5290.0,5290.0,3220,2070.0,1642090690306.0,1642090726257.0,,,,,,False,False,False,False,True,False
162,61e050e5aa09f84b60e4b0d3,run1,quiz,False,G7,,,,6166d95a22c741fea351f906,61df8999cc7c1c6984f5f11d,61e0503a92a79e2ccaa7c81c,$0.22,22.0,8.0,3.0,3.0,5,ha,ha,1.0,1.0,{},1642090718772.0,1642090721033.0,5564.0,3303.0,1806,1497.0,1642090626149.0,1642090724336.0,,,,,,False,False,False,False,True,False
163,61e050e6aa09f84b60e4b0d4,run1,quiz,False,G5,,,,5e19e3a846ef8226677f05ab,61df8999cc7c1c6984f5f11d,61e0502b5d5c43ac54465f14,$0.73,73.0,25.0,5.0,5.0,4,se-na,sena,1.0,0.0,{},1642090722001.0,1642090722001.0,3054.0,3054.0,381,2673.0,1642090628729.0,1642090725055.0,,,,,,False,False,False,False,True,False
164,61e050e6aa09f84b60e4b0d5,run1,quiz,False,G3,,,,60e87324309700b7d549d491,61df8999cc7c1c6984f5f11d,61e0501bfd26a345e8c26caa,$0.66,66.0,22.0,2.0,2.0,5,nu,nu,1.0,0.0,{},1642090726273.0,1642090726273.0,641.0,641.0,287,354.0,1642090619434.0,1642090726914.0,,,,,,False,False,False,False,True,False
166,61e050e8aa09f84b60e4b0d7,run1,quiz,False,G3,,,,60e87324309700b7d549d491,61df8999cc7c1c6984f5f11d,61e0501bfd26a345e8c26caa,$0.69,69.0,23.0,3.0,3.0,5,he,he,1.0,0.0,{},1642090727917.0,1642090727917.0,553.0,553.0,230,323.0,1642090619434.0,1642090728470.0,,,,,,False,False,False,False,True,False
167,61e050e8aa09f84b60e4b0d8,run1,quiz,False,G5,,,,5e19e3a846ef8226677f05ab,61df8999cc7c1c6984f5f11d,61e0502b5d5c43ac54465f14,$0.76,76.0,26.0,6.0,6.0,4,se-ki,seki,1.0,0.0,{},1642090726057.0,1642090726057.0,1342.0,1342.0,350,992.0,1642090628729.0,1642090727399.0,,,,,,False,False,False,False,True,False
169,61e050e9aa09f84b60e4b0da,run1,tutorial,False,G7,,,,6166d95a22c741fea351f906,61df8999cc7c1c6984f5f11d,61e0503a92a79e2ccaa7c81c,$0.22,22.0,9.0,4.0,4.0,5,si,si,1.0,0.0,{},1642090725339.0,1642090725339.0,2548.0,2548.0,1607,941.0,1642090626149.0,1642090727887.0,,,,,,False,False,False,False,True,False
170,61e050e9aa09f84b60e4b0db,run1,quiz,False,G2,,,,608926794eed2203be5574ee,61df8999cc7c1c6984f5f11d,61e05001cad36d19f0c15718,$0.3,30.0,10.0,1.0,1.0,2,no,no,1.0,0.0,{},1642090725790.0,1642090725790.0,3667.0,3667.0,2521,1146.0,1642090597389.0,1642090729457.0,,,,,,False,False,False,False,True,False
171,61e050eaaa09f84b60e4b0dc,run1,quiz,False,G3,,,,60e87324309700b7d549d491,61df8999cc7c1c6984f5f11d,61e0501bfd26a345e8c26caa,$0.72,72.0,24.0,4.0,4.0,5,so,so,1.0,0.0,{},1642090729474.0,1642090729474.0,761.0,761.0,311,450.0,1642090619434.0,1642090730235.0,,,,,,False,False,False,False,True,False
172,61e050eaaa09f84b60e4b0dd,run1,quiz,False,G10,,,,5c488d5d30525a000103bc57,61df8999cc7c1c6984f5f11d,61e05034d9819c68472fe83d,$0.06,6.0,2.0,2.0,2.0,5,ka,ka,1.0,0.0,{},1642090727261.0,1642090727261.0,3519.0,3519.0,2759,760.0,1642090690306.0,1642090730780.0,,,,,,False,False,False,False,True,False
174,61e050ebaa09f84b60e4b0df,run1,quiz,False,G6,,,,5aff493f331e8100018f130d,61df8999cc7c1c6984f5f11d,61e0502c337b071611866160,$0.27,27.0,9.0,4.0,4.0,4,ko,ko,1.0,0.0,{},1642090725109.0,1642090725109.0,4745.0,4745.0,2271,2474.0,1642090636188.0,1642090729854.0,,,,,,False,False,False,False,True,False
175,61e050ebaa09f84b60e4b0e0,run1,tutorial,False,G8,,,,5ec43aa746bca211b1c11016,61df8999cc7c1c6984f5f11d,61e0502413f7285ab3af7ba5,$0.12,12.0,5.0,3.0,3.0,5,ki,ki,1.0,0.0,{},1642090707639.0,1642090707639.0,23438.0,23438.0,22638,800.0,1642090662014.0,1642090731078.0,,,,,,False,False,False,False,True,False
176,61e050ebaa09f84b60e4b0e1,run1,quiz,False,G3,,,,60e87324309700b7d549d491,61df8999cc7c1c6984f5f11d,61e0501bfd26a345e8c26caa,$0.75,75.0,25.0,5.0,5.0,5,ka,ka,1.0,0.0,{},1642090731239.0,1642090731239.0,598.0,598.0,208,390.0,1642090619434.0,1642090731837.0,,,,,,False,False,False,False,True,False
178,61e050ecaa09f84b60e4b0e3,run1,tutorial,False,G5,,,,5e19e3a846ef8226677f05ab,61df8999cc7c1c6984f5f11d,61e0502b5d5c43ac54465f14,$0.76,76.0,27.0,7.0,7.0,4,se-tu,setu,1.0,0.0,{},1642090728415.0,1642090728415.0,2880.0,2880.0,1463,1417.0,1642090628729.0,1642090731295.0,,,,,,False,False,False,False,True,False
179,61e050ecaa09f84b60e4b0e4,run1,quiz,False,G7,,,,6166d95a22c741fea351f906,61df8999cc7c1c6984f5f11d,61e0503a92a79e2ccaa7c81c,$0.25,25.0,9.0,4.0,4.0,5,si,si,1.0,0.0,{},1642090728889.0,1642090728889.0,2235.0,2235.0,1394,841.0,1642090626149.0,1642090731124.0,,,,,,False,False,False,False,True,False
181,61e050edaa09f84b60e4b0e6,run1,quiz,False,G3,,,,60e87324309700b7d549d491,61df8999cc7c1c6984f5f11d,61e0501bfd26a345e8c26caa,$0.78,78.0,26.0,6.0,6.0,5,ka-ti,kati,1.0,0.0,{},1642090732840.0,1642090732840.0,996.0,996.0,224,772.0,1642090619434.0,1642090733836.0,,,,,,False,False,False,False,True,False
182,61e050eeaa09f84b60e4b0e7,run1,quiz,False,G5,,,,5e19e3a846ef8226677f05ab,61df8999cc7c1c6984f5f11d,61e0502b5d5c43ac54465f14,$0.79,79.0,27.0,7.0,7.0,4,se-tu,setu,1.0,0.0,{},1642090732298.0,1642090732298.0,1349.0,1349.0,284,1065.0,1642090628729.0,1642090733647.0,,,,,,False,False,False,False,True,False
183,61e050efaa09f84b60e4b0e8,run1,quiz,False,G2,,,,608926794eed2203be5574ee,61df8999cc7c1c6984f5f11d,61e05001cad36d19f0c15718,$0.33,33.0,11.0,2.0,2.0,2,ta,ta,1.0,0.0,{},1642090730465.0,1642090730465.0,4480.0,4480.0,3066,1414.0,1642090597389.0,1642090734945.0,,,,,,False,False,False,False,True,False
185,61e050f0aa09f84b60e4b0ea,run1,quiz,False,G8,,,,5ec43aa746bca211b1c11016,61df8999cc7c1c6984f5f11d,61e0502413f7285ab3af7ba5,$0.15,15.0,5.0,3.0,3.0,5,ki,ki,1.0,0.0,{},1642090732085.0,1642090732085.0,3937.0,3937.0,2912,1025.0,1642090662014.0,1642090736022.0,,,,,,False,False,False,False,True,False
186,61e050f0aa09f84b60e4b0eb,run1,quiz,False,G6,,,,5aff493f331e8100018f130d,61df8999cc7c1c6984f5f11d,61e0502c337b071611866160,$0.3,30.0,10.0,1.0,1.0,4,nu,nu,1.0,0.0,{},1642090730877.0,1642090730877.0,4373.0,4373.0,2142,2231.0,1642090636188.0,1642090735250.0,,,,,,False,False,False,False,True,False
188,61e050f0aa09f84b60e4b0ed,run1,quiz,False,G5,,,,5e19e3a846ef8226677f05ab,61df8999cc7c1c6984f5f11d,61e0502b5d5c43ac54465f14,$0.82,82.0,28.0,1.0,1.0,4,na,na,1.0,0.0,{},1642090734650.0,1642090734650.0,924.0,924.0,572,352.0,1642090628729.0,1642090735574.0,,,,,,False,False,False,False,True,False
189,61e050f2aa09f84b60e4b0ee,run1,quiz,False,G10,,,,5c488d5d30525a000103bc57,61df8999cc7c1c6984f5f11d,61e05034d9819c68472fe83d,$0.06,6.0,3.0,1.0,1.0,5,no,to,0.0,0.0,{},1642090731784.0,1642090731784.0,7081.0,7081.0,5222,1859.0,1642090690306.0,1642090738865.0,,,,,,False,False,False,False,True,False
190,61e050f2aa09f84b60e4b0ef,run1,quiz,False,G5,,,,5e19e3a846ef8226677f05ab,61df8999cc7c1c6984f5f11d,61e0502b5d5c43ac54465f14,$0.85,85.0,29.0,2.0,2.0,4,ki,ki,1.0,0.0,{},1642090736577.0,1642090736577.0,861.0,861.0,29,832.0,1642090628729.0,1642090737438.0,,,,,,False,False,False,False,True,False
192,61e050f4aa09f84b60e4b0f1,run1,quiz,False,G8,,,,5ec43aa746bca211b1c11016,61df8999cc7c1c6984f5f11d,61e0502413f7285ab3af7ba5,$0.18,18.0,6.0,1.0,1.0,5,ho,ho,1.0,0.0,{},1642090737031.0,1642090737031.0,3230.0,3230.0,2174,1056.0,1642090662014.0,1642090740261.0,,,,,,False,False,False,False,True,False
195,61e050f4aa09f84b60e4b0f4,run1,quiz,False,G6,,,,5aff493f331e8100018f130d,61df8999cc7c1c6984f5f11d,61e0502c337b071611866160,$0.33,33.0,11.0,2.0,2.0,4,he,he,1.0,0.0,{},1642090736261.0,1642090736261.0,3481.0,3481.0,1690,1791.0,1642090636188.0,1642090739742.0,,,,,,False,False,False,False,True,False
196,61e050f5aa09f84b60e4b0f5,run1,quiz,False,G5,,,,5e19e3a846ef8226677f05ab,61df8999cc7c1c6984f5f11d,61e0502b5d5c43ac54465f14,$0.88,88.0,30.0,3.0,3.0,4,tu,tu,1.0,0.0,{},1642090738441.0,1642090738441.0,1478.0,1478.0,701,777.0,1642090628729.0,1642090739919.0,,,,,,False,False,False,False,True,False
197,61e050f5aa09f84b60e4b0f6,run1,quiz,False,G2,,,,608926794eed2203be5574ee,61df8999cc7c1c6984f5f11d,61e05001cad36d19f0c15718,$0.36,36.0,12.0,3.0,3.0,2,ta-no,tano,1.0,0.0,{},1642090735952.0,1642090735952.0,5369.0,5369.0,2807,2562.0,1642090597389.0,1642090741321.0,,,,,,False,False,False,False,True,False
198,61e050f6aa09f84b60e4b0f7,run1,tutorial,False,G3,,,,60e87324309700b7d549d491,61df8999cc7c1c6984f5f11d,61e0501bfd26a345e8c26caa,$0.78,78.0,27.0,7.0,7.0,5,ka-nu,kanu,1.0,0.0,{},1642090734848.0,1642090734848.0,7636.0,7636.0,6655,981.0,1642090619434.0,1642090742484.0,,,,,,False,False,False,False,True,False
200,61e050f7aa09f84b60e4b0f9,run1,quiz,False,G5,,,,5e19e3a846ef8226677f05ab,61df8999cc7c1c6984f5f11d,61e0502b5d5c43ac54465f14,$0.91,91.0,31.0,4.0,4.0,4,se,se,1.0,0.0,{},1642090740922.0,1642090740922.0,1341.0,1341.0,892,449.0,1642090628729.0,1642090742263.0,,,,,,False,False,False,False,True,False
201,61e050f8aa09f84b60e4b0fa,run1,quiz,False,G6,,,,5aff493f331e8100018f130d,61df8999cc7c1c6984f5f11d,61e0502c337b071611866160,$0.36,36.0,12.0,3.0,3.0,4,sa,sa,1.0,0.0,{},1642090740763.0,1642090740763.0,2795.0,2795.0,1739,1056.0,1642090636188.0,1642090743558.0,,,,,,False,False,False,False,True,False
202,61e050f9aa09f84b60e4b0fb,run1,quiz,False,G7,,,,6166d95a22c741fea351f906,61df8999cc7c1c6984f5f11d,61e0503a92a79e2ccaa7c81c,$0.28,28.0,10.0,1.0,1.0,5,ne,ne,1.0,0.0,{},1642090732127.0,1642090732127.0,11336.0,11336.0,10381,955.0,1642090626149.0,1642090743463.0,,,,,,False,False,False,False,True,False
203,61e050f9aa09f84b60e4b0fc,run1,quiz,False,G3,,,,60e87324309700b7d549d491,61df8999cc7c1c6984f5f11d,61e0501bfd26a345e8c26caa,$0.81,81.0,27.0,7.0,7.0,5,ka-nu,kanu,1.0,0.0,{},1642090743487.0,1642090743487.0,1930.0,1930.0,939,991.0,1642090619434.0,1642090745417.0,,,,,,False,False,False,False,True,False
204,61e050f9aa09f84b60e4b0fd,run1,quiz,False,G5,,,,5e19e3a846ef8226677f05ab,61df8999cc7c1c6984f5f11d,61e0502b5d5c43ac54465f14,$0.94,94.0,32.0,5.0,5.0,4,se-na,sena,1.0,0.0,{},1642090743265.0,1642090743265.0,1094.0,1094.0,349,745.0,1642090628729.0,1642090744359.0,,,,,,False,False,False,False,True,False
206,61e050faaa09f84b60e4b0ff,run1,quiz,False,G10,,,,5c488d5d30525a000103bc57,61df8999cc7c1c6984f5f11d,61e05034d9819c68472fe83d,$0.06,6.0,3.0,1.0,1.0,5,no,to,0.0,1.0,{},1642090731784.0,1642090738867.0,15065.0,7982.0,6208,1774.0,1642090690306.0,1642090746849.0,,,,,,False,False,False,False,True,False
207,61e050faaa09f84b60e4b100,run1,quiz,False,G2,,,,608926794eed2203be5574ee,61df8999cc7c1c6984f5f11d,61e05001cad36d19f0c15718,$0.39,39.0,13.0,4.0,4.0,2,hi,hi,1.0,0.0,{},1642090742328.0,1642090742328.0,3985.0,3985.0,3014,971.0,1642090597389.0,1642090746313.0,,,,,,False,False,False,False,True,False
209,61e050fbaa09f84b60e4b102,run1,quiz,False,G5,,,,5e19e3a846ef8226677f05ab,61df8999cc7c1c6984f5f11d,61e0502b5d5c43ac54465f14,$0.97,97.0,33.0,6.0,6.0,4,se-ki,seki,1.0,0.0,{},1642090745362.0,1642090745362.0,1021.0,1021.0,284,737.0,1642090628729.0,1642090746383.0,,,,,,False,False,False,False,True,False
210,61e050fbaa09f84b60e4b103,run1,quiz,False,G8,,,,5ec43aa746bca211b1c11016,61df8999cc7c1c6984f5f11d,61e0502413f7285ab3af7ba5,$0.21,21.0,7.0,2.0,2.0,5,ne,ne,1.0,0.0,{},1642090741273.0,1642090741273.0,6222.0,6222.0,4940,1282.0,1642090662014.0,1642090747495.0,,,,,,False,False,False,False,True,False
212,61e050fdaa09f84b60e4b105,run1,quiz,False,G3,,,,60e87324309700b7d549d491,61df8999cc7c1c6984f5f11d,61e0501bfd26a345e8c26caa,$0.84,84.0,28.0,1.0,1.0,5,ti,ti,1.0,0.0,{},1642090746421.0,1642090746421.0,2798.0,2798.0,2211,587.0,1642090619434.0,1642090749219.0,,,,,,False,False,False,False,True,False
214,61e050fdaa09f84b60e4b107,run1,quiz,False,G7,,,,6166d95a22c741fea351f906,61df8999cc7c1c6984f5f11d,61e0503a92a79e2ccaa7c81c,$0.31,31.0,11.0,2.0,2.0,5,to,to,1.0,0.0,{},1642090744464.0,1642090744464.0,3464.0,3464.0,2524,940.0,1642090626149.0,1642090747928.0,,,,,,False,False,False,False,True,False
215,61e050feaa09f84b60e4b108,run1,quiz,False,G6,,,,5aff493f331e8100018f130d,61df8999cc7c1c6984f5f11d,61e0502c337b071611866160,$0.39,39.0,13.0,4.0,4.0,4,ko,ko,1.0,0.0,{},1642090744573.0,1642090744573.0,4481.0,4481.0,2064,2417.0,1642090636188.0,1642090749054.0,,,,,,False,False,False,False,True,False
216,61e050feaa09f84b60e4b109,run1,quiz,False,G10,,,,5c488d5d30525a000103bc57,61df8999cc7c1c6984f5f11d,61e05034d9819c68472fe83d,$0.06,6.0,3.0,1.0,1.0,5,no,ka,0.0,2.0,{},1642090731784.0,1642090746851.0,18880.0,3813.0,3201,612.0,1642090690306.0,1642090750664.0,,,,,,False,False,False,False,True,False
218,61e050feaa09f84b60e4b10b,run1,quiz,False,G5,,,,5e19e3a846ef8226677f05ab,61df8999cc7c1c6984f5f11d,61e0502b5d5c43ac54465f14,$1,100.0,34.0,7.0,7.0,4,se-tu,setu,1.0,0.0,{},1642090747398.0,1642090747398.0,2265.0,2265.0,656,1609.0,1642090628729.0,1642090749663.0,,,,,,False,False,False,False,True,False
219,61e050ffaa09f84b60e4b10c,run1,quiz,False,G3,,,,60e87324309700b7d549d491,61df8999cc7c1c6984f5f11d,61e0501bfd26a345e8c26caa,$0.87,87.0,29.0,2.0,2.0,5,nu,nu,1.0,0.0,{},1642090750222.0,1642090750222.0,1659.0,1659.0,1111,548.0,1642090619434.0,1642090751881.0,,,,,,False,False,False,False,True,False
222,61e05100aa09f84b60e4b10f,run1,quiz,False,G8,,,,5ec43aa746bca211b1c11016,61df8999cc7c1c6984f5f11d,61e0502413f7285ab3af7ba5,$0.24,24.0,8.0,3.0,3.0,5,ki,ki,1.0,0.0,{},1642090748506.0,1642090748506.0,3676.0,3676.0,2860,816.0,1642090662014.0,1642090752182.0,,,,,,False,False,False,False,True,False
224,61e05101aa09f84b60e4b111,run1,tutorial,False,G12,,,,5efebc57a352be3d0dff46a7,61df8999cc7c1c6984f5f11d,61e0503717977383a741f3ea,$0,0.0,1.0,1.0,1.0,3,tu,tu,1.0,0.0,{},1642090737760.0,1642090737760.0,16026.0,16026.0,15077,949.0,1642090735755.0,1642090753786.0,,,,,,False,False,False,False,True,False
225,61e05101aa09f84b60e4b112,run1,quiz,False,G7,,,,6166d95a22c741fea351f906,61df8999cc7c1c6984f5f11d,61e0503a92a79e2ccaa7c81c,$0.34,34.0,12.0,3.0,3.0,5,ha,ha,1.0,0.0,{},1642090748930.0,1642090748930.0,2923.0,2923.0,1811,1112.0,1642090626149.0,1642090751853.0,,,,,,False,False,False,False,True,False
226,61e05101aa09f84b60e4b113,run1,quiz,False,G3,,,,60e87324309700b7d549d491,61df8999cc7c1c6984f5f11d,61e0501bfd26a345e8c26caa,$0.9,90.0,30.0,3.0,3.0,5,he,he,1.0,0.0,{},1642090752884.0,1642090752884.0,1098.0,1098.0,754,344.0,1642090619434.0,1642090753982.0,,,,,,False,False,False,False,True,False
228,61e05103aa09f84b60e4b115,run1,quiz,False,G3,,,,60e87324309700b7d549d491,61df8999cc7c1c6984f5f11d,61e0501bfd26a345e8c26caa,$0.93,93.0,31.0,4.0,4.0,5,so,so,1.0,0.0,{},1642090754986.0,1642090754986.0,891.0,891.0,409,482.0,1642090619434.0,1642090755877.0,,,,,,False,False,False,False,True,False
231,61e05103aa09f84b60e4b118,run1,tutorial,False,G5,,,,5e19e3a846ef8226677f05ab,61df8999cc7c1c6984f5f11d,61e0502b5d5c43ac54465f14,$1,100.0,35.0,8.0,8.0,4,ki-se,kise,1.0,0.0,{},1642090750666.0,1642090750666.0,4053.0,4053.0,2796,1257.0,1642090628729.0,1642090754719.0,,,,,,False,False,False,False,True,False
232,61e05105aa09f84b60e4b119,run1,quiz,False,G7,,,,6166d95a22c741fea351f906,61df8999cc7c1c6984f5f11d,61e0503a92a79e2ccaa7c81c,$0.37,37.0,13.0,4.0,4.0,5,si,si,1.0,0.0,{},1642090752854.0,1642090752854.0,2532.0,2532.0,1659,873.0,1642090626149.0,1642090755386.0,,,,,,False,False,False,False,True,False
233,61e05105aa09f84b60e4b11a,run1,quiz,False,G12,,,,5efebc57a352be3d0dff46a7,61df8999cc7c1c6984f5f11d,61e0503717977383a741f3ea,$0.03,3.0,1.0,1.0,1.0,3,tu,tu,1.0,0.0,{},1642090754797.0,1642090754797.0,3074.0,3074.0,2229,845.0,1642090735755.0,1642090757871.0,,,,,,False,False,False,False,True,False
234,61e05105aa09f84b60e4b11b,run1,quiz,False,G3,,,,60e87324309700b7d549d491,61df8999cc7c1c6984f5f11d,61e0501bfd26a345e8c26caa,$0.96,96.0,32.0,5.0,5.0,5,ka,ka,1.0,0.0,{},1642090756880.0,1642090756880.0,659.0,659.0,212,447.0,1642090619434.0,1642090757539.0,,,,,,False,False,False,False,True,False
236,61e05106aa09f84b60e4b11d,run1,quiz,False,G5,,,,5e19e3a846ef8226677f05ab,61df8999cc7c1c6984f5f11d,61e0502b5d5c43ac54465f14,$1.03,103.0,35.0,8.0,8.0,4,ki-se,kise,1.0,0.0,{},1642090755722.0,1642090755722.0,1406.0,1406.0,828,578.0,1642090628729.0,1642090757128.0,,,,,,False,False,False,False,True,False
239,61e05107aa09f84b60e4b120,run1,quiz,False,G3,,,,60e87324309700b7d549d491,61df8999cc7c1c6984f5f11d,61e0501bfd26a345e8c26caa,$0.99,99.0,33.0,6.0,6.0,5,ka-ti,kati,1.0,0.0,{},1642090758543.0,1642090758543.0,1331.0,1331.0,320,1011.0,1642090619434.0,1642090759874.0,,,,,,False,False,False,False,True,False
241,61e05108aa09f84b60e4b122,run1,quiz,False,G5,,,,5e19e3a846ef8226677f05ab,61df8999cc7c1c6984f5f11d,61e0502b5d5c43ac54465f14,$1.06,106.0,36.0,1.0,1.0,4,na,na,1.0,0.0,{},1642090758131.0,1642090758131.0,1284.0,1284.0,475,809.0,1642090628729.0,1642090759415.0,,,,,,False,False,False,False,True,False
242,61e05109aa09f84b60e4b123,run1,tutorial,False,G7,,,,6166d95a22c741fea351f906,61df8999cc7c1c6984f5f11d,61e0503a92a79e2ccaa7c81c,$0.37,37.0,14.0,5.0,5.0,5,ku,ku,1.0,0.0,{},1642090756388.0,1642090756388.0,3235.0,3235.0,2385,850.0,1642090626149.0,1642090759623.0,,,,,,False,False,False,False,True,False
243,61e05109aa09f84b60e4b124,run1,tutorial,False,G12,,,,5efebc57a352be3d0dff46a7,61df8999cc7c1c6984f5f11d,61e0503717977383a741f3ea,$0.03,3.0,2.0,2.0,2.0,3,na,na,1.0,0.0,{},1642090758883.0,1642090758883.0,2992.0,2992.0,1959,1033.0,1642090735755.0,1642090761875.0,,,,,,False,False,False,False,True,False
246,61e0510aaa09f84b60e4b127,run1,quiz,False,G3,,,,60e87324309700b7d549d491,61df8999cc7c1c6984f5f11d,61e0501bfd26a345e8c26caa,$1.02,102.0,34.0,7.0,7.0,5,ka-nu,kanu,1.0,0.0,{},1642090760879.0,1642090760879.0,1718.0,1718.0,56,1662.0,1642090619434.0,1642090762597.0,,,,,,False,False,False,False,True,False
247,61e0510aaa09f84b60e4b128,run1,quiz,False,G5,,,,5e19e3a846ef8226677f05ab,61df8999cc7c1c6984f5f11d,61e0502b5d5c43ac54465f14,$1.09,109.0,37.0,2.0,2.0,4,ki,ki,1.0,0.0,{},1642090760418.0,1642090760418.0,861.0,861.0,316,545.0,1642090628729.0,1642090761279.0,,,,,,False,False,False,False,True,False
248,61e0510baa09f84b60e4b129,run1,tutorial,False,G8,,,,5ec43aa746bca211b1c11016,61df8999cc7c1c6984f5f11d,61e0502413f7285ab3af7ba5,$0.24,24.0,9.0,4.0,4.0,5,su,su,1.0,0.0,{},1642090753202.0,1642090753202.0,10019.0,10019.0,8324,1695.0,1642090662014.0,1642090763221.0,,,,,,False,False,False,False,True,False
249,61e0510caa09f84b60e4b12a,run1,quiz,False,G5,,,,5e19e3a846ef8226677f05ab,61df8999cc7c1c6984f5f11d,61e0502b5d5c43ac54465f14,$1.12,112.0,38.0,3.0,3.0,4,tu,tu,1.0,0.0,{},1642090762282.0,1642090762282.0,829.0,829.0,380,449.0,1642090628729.0,1642090763111.0,,,,,,False,False,False,False,True,False
250,61e0510caa09f84b60e4b12b,run1,tutorial,False,G2,,,,608926794eed2203be5574ee,61df8999cc7c1c6984f5f11d,61e05001cad36d19f0c15718,$0.39,39.0,14.0,5.0,5.0,2,hi-no,hino,1.0,0.0,{},1642090747320.0,1642090747320.0,17025.0,17025.0,14606,2419.0,1642090597389.0,1642090764345.0,,,,,,False,False,False,False,True,False
253,61e0510daa09f84b60e4b12e,run1,quiz,False,G12,,,,5efebc57a352be3d0dff46a7,61df8999cc7c1c6984f5f11d,61e0503717977383a741f3ea,$0.06,6.0,2.0,2.0,2.0,3,na,na,1.0,0.0,{},1642090762877.0,1642090762877.0,2879.0,2879.0,1549,1330.0,1642090735755.0,1642090765756.0,,,,,,False,False,False,False,True,False
255,61e0510eaa09f84b60e4b130,run1,quiz,False,G10,,,,5c488d5d30525a000103bc57,61df8999cc7c1c6984f5f11d,61e05034d9819c68472fe83d,$0.09,9.0,4.0,2.0,2.0,5,ka,ka,1.0,0.0,{},1642090751668.0,1642090751668.0,15007.0,15008.0,11761,3247.0,1642090690306.0,1642090766676.0,,,,,,False,False,False,False,True,False
256,61e0510eaa09f84b60e4b131,run1,quiz,False,G5,,,,5e19e3a846ef8226677f05ab,61df8999cc7c1c6984f5f11d,61e0502b5d5c43ac54465f14,$1.15,115.0,39.0,4.0,4.0,4,se,se,1.0,0.0,{},1642090764114.0,1642090764114.0,1254.0,1254.0,540,714.0,1642090628729.0,1642090765368.0,,,,,,False,False,False,False,True,False
257,61e0510faa09f84b60e4b132,run1,quiz,False,G8,,,,5ec43aa746bca211b1c11016,61df8999cc7c1c6984f5f11d,61e0502413f7285ab3af7ba5,$0.27,27.0,9.0,4.0,4.0,5,su,su,1.0,0.0,{},1642090764228.0,1642090764228.0,2833.0,2833.0,1714,1119.0,1642090662014.0,1642090767061.0,,,,,,False,False,False,False,True,False
258,61e0510faa09f84b60e4b133,run1,quiz,False,G7,,,,6166d95a22c741fea351f906,61df8999cc7c1c6984f5f11d,61e0503a92a79e2ccaa7c81c,$0.4,40.0,14.0,5.0,5.0,5,ku,ku,1.0,0.0,{},1642090760626.0,1642090760626.0,5438.0,5438.0,5031,407.0,1642090626149.0,1642090766064.0,,,,,,False,False,False,False,True,False
260,61e05110aa09f84b60e4b135,run1,quiz,False,G5,,,,5e19e3a846ef8226677f05ab,61df8999cc7c1c6984f5f11d,61e0502b5d5c43ac54465f14,$1.18,118.0,40.0,5.0,5.0,4,se-na,sena,1.0,0.0,{},1642090766370.0,1642090766370.0,1117.0,1117.0,541,576.0,1642090628729.0,1642090767487.0,,,,,,False,False,False,False,True,False
262,61e05112aa09f84b60e4b137,run1,quiz,False,G12,,,,5efebc57a352be3d0dff46a7,61df8999cc7c1c6984f5f11d,61e0503717977383a741f3ea,$0.09,9.0,3.0,1.0,1.0,3,tu,tu,1.0,0.0,{},1642090766759.0,1642090766759.0,3821.0,3821.0,2399,1422.0,1642090735755.0,1642090770580.0,,,,,,False,False,False,False,True,False
263,61e05112aa09f84b60e4b138,run1,quiz,False,G2,,,,608926794eed2203be5574ee,61df8999cc7c1c6984f5f11d,61e05001cad36d19f0c15718,$0.42,42.0,14.0,5.0,5.0,2,hi-no,hino,1.0,0.0,{},1642090765350.0,1642090765350.0,4467.0,4467.0,1921,2546.0,1642090597389.0,1642090769817.0,,,,,,False,False,False,False,True,False
264,61e05112aa09f84b60e4b139,run1,quiz,False,G8,,,,5ec43aa746bca211b1c11016,61df8999cc7c1c6984f5f11d,61e0502413f7285ab3af7ba5,$0.3,30.0,10.0,1.0,1.0,5,ho,ho,1.0,0.0,{},1642090768081.0,1642090768081.0,2421.0,2421.0,1508,913.0,1642090662014.0,1642090770502.0,,,,,,False,False,False,False,True,False
265,61e05113aa09f84b60e4b13a,run1,quiz,False,G5,,,,5e19e3a846ef8226677f05ab,61df8999cc7c1c6984f5f11d,61e0502b5d5c43ac54465f14,$1.21,121.0,41.0,6.0,6.0,4,se-ki,seki,1.0,0.0,{},1642090768490.0,1642090768490.0,1638.0,1638.0,348,1290.0,1642090628729.0,1642090770128.0,,,,,,False,False,False,False,True,False
266,61e05113aa09f84b60e4b13b,run1,quiz,False,G7,,,,6166d95a22c741fea351f906,61df8999cc7c1c6984f5f11d,61e0503a92a79e2ccaa7c81c,$0.43,43.0,15.0,1.0,1.0,5,ne,ne,1.0,0.0,{},1642090767066.0,1642090767066.0,2640.0,2640.0,1773,867.0,1642090626149.0,1642090769706.0,,,,,,False,False,False,False,True,False
268,61e05114aa09f84b60e4b13d,run1,tutorial,False,G3,,,,60e87324309700b7d549d491,61df8999cc7c1c6984f5f11d,61e0501bfd26a345e8c26caa,$1.02,102.0,35.0,8.0,8.0,5,ka-he,kahe,1.0,0.0,{},1642090763600.0,1642090763600.0,9597.0,9597.0,8748,849.0,1642090619434.0,1642090773197.0,,,,,,False,False,False,False,True,False
269,61e05115aa09f84b60e4b13e,run1,quiz,False,G12,,,,5efebc57a352be3d0dff46a7,61df8999cc7c1c6984f5f11d,61e0503717977383a741f3ea,$0.12,12.0,4.0,2.0,2.0,3,na,na,1.0,0.0,{},1642090771582.0,1642090771582.0,2292.0,2292.0,1835,457.0,1642090735755.0,1642090773874.0,,,,,,False,False,False,False,True,False
271,61e05115aa09f84b60e4b140,run1,quiz,False,G5,,,,5e19e3a846ef8226677f05ab,61df8999cc7c1c6984f5f11d,61e0502b5d5c43ac54465f14,$1.24,124.0,42.0,7.0,7.0,4,se-tu,setu,1.0,0.0,{},1642090771131.0,1642090771131.0,1468.0,1468.0,667,801.0,1642090628729.0,1642090772600.0,,,,,,False,False,False,False,True,False
274,61e05117aa09f84b60e4b143,run1,quiz,False,G2,,,,608926794eed2203be5574ee,61df8999cc7c1c6984f5f11d,61e05001cad36d19f0c15718,$0.45,45.0,15.0,1.0,1.0,2,no,no,1.0,0.0,{},1642090770822.0,1642090770822.0,3947.0,3947.0,2218,1729.0,1642090597389.0,1642090774769.0,,,,,,False,False,False,False,True,False
275,61e05117aa09f84b60e4b144,run1,quiz,False,G3,,,,60e87324309700b7d549d491,61df8999cc7c1c6984f5f11d,61e0501bfd26a345e8c26caa,$1.05,105.0,35.0,8.0,8.0,5,ka-he,kahe,1.0,0.0,{},1642090774200.0,1642090774200.0,1506.0,1506.0,725,781.0,1642090619434.0,1642090775706.0,,,,,,False,False,False,False,True,False
276,61e05117aa09f84b60e4b145,run1,tutorial,False,G10,,,,5c488d5d30525a000103bc57,61df8999cc7c1c6984f5f11d,61e05034d9819c68472fe83d,$0.09,9.0,5.0,3.0,3.0,5,su,su,1.0,0.0,{},1642090767679.0,1642090767679.0,8491.0,8491.0,6677,1814.0,1642090690306.0,1642090776170.0,,,,,,False,False,False,False,True,False
277,61e05117aa09f84b60e4b146,run1,quiz,False,G5,,,,5e19e3a846ef8226677f05ab,61df8999cc7c1c6984f5f11d,61e0502b5d5c43ac54465f14,$1.27,127.0,43.0,8.0,8.0,4,ki-se,kise,1.0,0.0,{},1642090773602.0,1642090773602.0,1062.0,1062.0,348,714.0,1642090628729.0,1642090774664.0,,,,,,False,False,False,False,True,False
279,61e05118aa09f84b60e4b148,run1,quiz,False,G7,,,,6166d95a22c741fea351f906,61df8999cc7c1c6984f5f11d,61e0503a92a79e2ccaa7c81c,$0.46,46.0,16.0,2.0,2.0,5,to,to,1.0,0.0,{},1642090770708.0,1642090770708.0,4476.0,4476.0,2022,2454.0,1642090626149.0,1642090775184.0,,,,,,False,False,False,False,True,False
280,61e05118aa09f84b60e4b149,run1,quiz,False,G8,,,,5ec43aa746bca211b1c11016,61df8999cc7c1c6984f5f11d,61e0502413f7285ab3af7ba5,$0.33,33.0,11.0,2.0,2.0,5,ne,ne,1.0,0.0,{},1642090771510.0,1642090771510.0,5190.0,5190.0,2433,2757.0,1642090662014.0,1642090776700.0,,,,,,False,False,False,False,True,False
282,61e0511aaa09f84b60e4b14b,run1,quiz,False,G3,,,,60e87324309700b7d549d491,61df8999cc7c1c6984f5f11d,61e0501bfd26a345e8c26caa,$1.08,108.0,36.0,1.0,1.0,5,ti,ti,1.0,0.0,{},1642090776709.0,1642090776709.0,2340.0,2340.0,1645,695.0,1642090619434.0,1642090779049.0,,,,,,False,False,False,False,True,False
284,61e0511caa09f84b60e4b14d,run1,quiz,False,G8,,,,5ec43aa746bca211b1c11016,61df8999cc7c1c6984f5f11d,61e0502413f7285ab3af7ba5,$0.36,36.0,12.0,3.0,3.0,5,ki,ki,1.0,0.0,{},1642090777708.0,1642090777708.0,2138.0,2138.0,1225,913.0,1642090662014.0,1642090779846.0,,,,,,False,False,False,False,True,False
285,61e0511caa09f84b60e4b14e,run1,quiz,False,G3,,,,60e87324309700b7d549d491,61df8999cc7c1c6984f5f11d,61e0501bfd26a345e8c26caa,$1.11,111.0,37.0,2.0,2.0,5,nu,nu,1.0,0.0,{},1642090780052.0,1642090780052.0,807.0,807.0,257,550.0,1642090619434.0,1642090780859.0,,,,,,False,False,False,False,True,False
286,61e0511caa09f84b60e4b14f,run1,tutorial,False,G5,,,,5e19e3a846ef8226677f05ab,61df8999cc7c1c6984f5f11d,61e0502b5d5c43ac54465f14,$1.27,127.0,44.0,9.0,9.0,4,ki-se-na,kisena,1.0,0.0,{},1642090775667.0,1642090775667.0,3949.0,3949.0,2468,1481.0,1642090628729.0,1642090779616.0,,,,,,False,False,False,False,True,False
288,61e0511daa09f84b60e4b151,run1,quiz,False,G7,,,,6166d95a22c741fea351f906,61df8999cc7c1c6984f5f11d,61e0503a92a79e2ccaa7c81c,$0.49,49.0,17.0,3.0,3.0,5,ha,ha,1.0,0.0,{},1642090776186.0,1642090776186.0,3412.0,3412.0,2283,1129.0,1642090626149.0,1642090779598.0,,,,,,False,False,False,False,True,False
290,61e0511daa09f84b60e4b153,run1,quiz,False,G2,,,,608926794eed2203be5574ee,61df8999cc7c1c6984f5f11d,61e05001cad36d19f0c15718,$0.48,48.0,16.0,2.0,2.0,2,ta,ta,1.0,0.0,{},1642090775775.0,1642090775775.0,5602.0,5602.0,3825,1777.0,1642090597389.0,1642090781377.0,,,,,,False,False,False,False,True,False
291,61e0511eaa09f84b60e4b154,run1,quiz,False,G3,,,,60e87324309700b7d549d491,61df8999cc7c1c6984f5f11d,61e0501bfd26a345e8c26caa,$1.14,114.0,38.0,3.0,3.0,5,he,he,1.0,0.0,{},1642090781863.0,1642090781863.0,655.0,655.0,257,398.0,1642090619434.0,1642090782518.0,,,,,,False,False,False,False,True,False
293,61e0511faa09f84b60e4b156,run1,quiz,False,G5,,,,5e19e3a846ef8226677f05ab,61df8999cc7c1c6984f5f11d,61e0502b5d5c43ac54465f14,$1.3,130.0,44.0,9.0,9.0,4,ki-se-na,kisena,1.0,0.0,{},1642090780618.0,1642090780618.0,1638.0,1638.0,317,1321.0,1642090628729.0,1642090782256.0,,,,,,False,False,False,False,True,False
295,61e05120aa09f84b60e4b158,run1,quiz,False,G3,,,,60e87324309700b7d549d491,61df8999cc7c1c6984f5f11d,61e0501bfd26a345e8c26caa,$1.17,117.0,39.0,4.0,4.0,5,so,so,1.0,0.0,{},1642090783522.0,1642090783522.0,763.0,763.0,215,548.0,1642090619434.0,1642090784285.0,,,,,,False,False,False,False,True,False
297,61e05121aa09f84b60e4b15a,run1,quiz,False,G7,,,,6166d95a22c741fea351f906,61df8999cc7c1c6984f5f11d,61e0503a92a79e2ccaa7c81c,$0.52,52.0,18.0,4.0,4.0,5,si,si,1.0,0.0,{},1642090780599.0,1642090780599.0,2986.0,2986.0,1935,1051.0,1642090626149.0,1642090783585.0,,,,,,False,False,False,False,True,False
298,61e05121aa09f84b60e4b15b,run1,quiz,False,G8,,,,5ec43aa746bca211b1c11016,61df8999cc7c1c6984f5f11d,61e0502413f7285ab3af7ba5,$0.39,39.0,13.0,4.0,4.0,5,su,su,1.0,0.0,{},1642090780855.0,1642090780855.0,4478.0,4478.0,3278,1200.0,1642090662014.0,1642090785333.0,,,,,,False,False,False,False,True,False
299,61e05121aa09f84b60e4b15c,run1,quiz,False,G3,,,,60e87324309700b7d549d491,61df8999cc7c1c6984f5f11d,61e0501bfd26a345e8c26caa,$1.2,120.0,40.0,5.0,5.0,5,ka,ka,1.0,0.0,{},1642090785289.0,1642090785289.0,695.0,695.0,160,535.0,1642090619434.0,1642090785984.0,,,,,,False,False,False,False,True,False
300,61e05122aa09f84b60e4b15d,run1,quiz,False,G5,,,,5e19e3a846ef8226677f05ab,61df8999cc7c1c6984f5f11d,61e0502b5d5c43ac54465f14,$1.33,133.0,45.0,1.0,1.0,4,na,na,1.0,0.0,{},1642090783259.0,1642090783259.0,1989.0,1989.0,1636,353.0,1642090628729.0,1642090785248.0,,,,,,False,False,False,False,True,False
301,61e05122aa09f84b60e4b15e,run1,quiz,False,G10,,,,5c488d5d30525a000103bc57,61df8999cc7c1c6984f5f11d,61e05034d9819c68472fe83d,$0.12,12.0,5.0,3.0,3.0,5,su,su,1.0,0.0,{},1642090777174.0,1642090777174.0,9777.0,9777.0,7797,1980.0,1642090690306.0,1642090786951.0,,,,,,False,False,False,False,True,False
304,61e05124aa09f84b60e4b161,run1,quiz,False,G5,,,,5e19e3a846ef8226677f05ab,61df8999cc7c1c6984f5f11d,61e0502b5d5c43ac54465f14,$1.36,136.0,46.0,2.0,2.0,4,ki,ki,1.0,0.0,{},1642090786250.0,1642090786250.0,798.0,798.0,285,513.0,1642090628729.0,1642090787048.0,,,,,,False,False,False,False,True,False
305,61e05124aa09f84b60e4b162,run1,quiz,False,G2,,,,608926794eed2203be5574ee,61df8999cc7c1c6984f5f11d,61e05001cad36d19f0c15718,$0.51,51.0,17.0,3.0,3.0,2,ta-no,tano,1.0,0.0,{},1642090782381.0,1642090782381.0,5908.0,5908.0,3135,2773.0,1642090597389.0,1642090788289.0,,,,,,False,False,False,False,True,False
306,61e05124aa09f84b60e4b163,run1,quiz,False,G3,,,,60e87324309700b7d549d491,61df8999cc7c1c6984f5f11d,61e0501bfd26a345e8c26caa,$1.23,123.0,41.0,6.0,6.0,5,ka-ti,kati,1.0,0.0,{},1642090786988.0,1642090786988.0,1867.0,1867.0,175,1692.0,1642090619434.0,1642090788855.0,,,,,,False,False,False,False,True,False
309,61e05126aa09f84b60e4b166,run1,quiz,False,G7,,,,6166d95a22c741fea351f906,61df8999cc7c1c6984f5f11d,61e0503a92a79e2ccaa7c81c,$0.55,55.0,19.0,5.0,5.0,5,ku,ku,1.0,0.0,{},1642090784588.0,1642090784588.0,4218.0,4218.0,3766,452.0,1642090626149.0,1642090788806.0,,,,,,False,False,False,False,True,False
312,61e05127aa09f84b60e4b169,run1,quiz,False,G3,,,,60e87324309700b7d549d491,61df8999cc7c1c6984f5f11d,61e0501bfd26a345e8c26caa,$1.26,126.0,42.0,7.0,7.0,5,ka-nu,kanu,1.0,0.0,{},1642090789865.0,1642090789865.0,1748.0,1748.0,266,1482.0,1642090619434.0,1642090791613.0,,,,,,False,False,False,False,True,False
313,61e05127aa09f84b60e4b16a,run1,quiz,False,G10,,,,5c488d5d30525a000103bc57,61df8999cc7c1c6984f5f11d,61e05034d9819c68472fe83d,$0.15,15.0,6.0,1.0,1.0,5,no,no,1.0,0.0,{},1642090787954.0,1642090787954.0,4343.0,4343.0,2651,1692.0,1642090690306.0,1642090792297.0,,,,,,False,False,False,False,True,False
314,61e05128aa09f84b60e4b16b,run1,quiz,False,G5,,,,5e19e3a846ef8226677f05ab,61df8999cc7c1c6984f5f11d,61e0502b5d5c43ac54465f14,$1.39,139.0,47.0,3.0,3.0,4,tu,tu,1.0,0.0,{},1642090788051.0,1642090788051.0,2861.0,2861.0,2438,423.0,1642090628729.0,1642090790912.0,,,,,,False,False,False,False,True,False
315,61e05128aa09f84b60e4b16c,run1,tutorial,False,G12,,,,5efebc57a352be3d0dff46a7,61df8999cc7c1c6984f5f11d,61e0503717977383a741f3ea,$0.12,12.0,5.0,3.0,3.0,3,ko,ko,1.0,0.0,"{'1642090779322': 'blurred', '1642090790523': 'focused'}",1642090774877.0,1642090774877.0,18639.0,18639.0,4340,14299.0,1642090735755.0,1642090793516.0,,,,,,True,False,False,False,True,False
321,61e05129aa09f84b60e4b172,run1,quiz,False,G3,,,,60e87324309700b7d549d491,61df8999cc7c1c6984f5f11d,61e0501bfd26a345e8c26caa,$1.29,129.0,43.0,8.0,8.0,5,ka-he,kahe,1.0,0.0,{},1642090792618.0,1642090792618.0,1491.0,1491.0,641,850.0,1642090619434.0,1642090794109.0,,,,,,False,False,False,False,True,False
322,61e05129aa09f84b60e4b173,run1,quiz,False,G5,,,,5e19e3a846ef8226677f05ab,61df8999cc7c1c6984f5f11d,61e0502b5d5c43ac54465f14,$1.42,142.0,48.0,4.0,4.0,4,se,se,1.0,0.0,{},1642090791915.0,1642090791915.0,829.0,829.0,476,353.0,1642090628729.0,1642090792744.0,,,,,,False,False,False,False,True,False
323,61e0512aaa09f84b60e4b174,run1,tutorial,False,G8,,,,5ec43aa746bca211b1c11016,61df8999cc7c1c6984f5f11d,61e0502413f7285ab3af7ba5,$0.39,39.0,14.0,5.0,5.0,5,ta,ta,1.0,0.0,{},1642090786340.0,1642090786340.0,7509.0,7509.0,6385,1124.0,1642090662014.0,1642090793849.0,,,,,,False,False,False,False,True,False
324,61e0512baa09f84b60e4b175,run1,quiz,False,G2,,,,608926794eed2203be5574ee,61df8999cc7c1c6984f5f11d,61e05001cad36d19f0c15718,$0.54,54.0,18.0,4.0,4.0,2,hi,hi,1.0,0.0,{},1642090789294.0,1642090789294.0,5875.0,5875.0,4359,1516.0,1642090597389.0,1642090795169.0,,,,,,False,False,False,False,True,False
328,61e0512caa09f84b60e4b179,run1,quiz,False,G5,,,,5e19e3a846ef8226677f05ab,61df8999cc7c1c6984f5f11d,61e0502b5d5c43ac54465f14,$1.45,145.0,49.0,5.0,5.0,4,se-na,sena,1.0,0.0,{},1642090793748.0,1642090793748.0,1564.0,1564.0,475,1089.0,1642090628729.0,1642090795312.0,,,,,,False,False,False,False,True,False
329,61e0512caa09f84b60e4b17a,run1,quiz,False,G10,,,,5c488d5d30525a000103bc57,61df8999cc7c1c6984f5f11d,61e05034d9819c68472fe83d,$0.18,18.0,7.0,2.0,2.0,5,ka,ka,1.0,0.0,{},1642090793301.0,1642090793301.0,3869.0,3869.0,2809,1060.0,1642090690306.0,1642090797170.0,,,,,,False,False,False,False,True,False
330,61e0512daa09f84b60e4b17b,run1,quiz,False,G12,,,,5efebc57a352be3d0dff46a7,61df8999cc7c1c6984f5f11d,61e0503717977383a741f3ea,$0.15,15.0,5.0,3.0,3.0,3,ko,ko,1.0,0.0,{},1642090794518.0,1642090794518.0,3305.0,3305.0,1516,1789.0,1642090735755.0,1642090797823.0,,,,,,False,False,False,False,True,False
334,61e0512eaa09f84b60e4b17f,run1,quiz,False,G8,,,,5ec43aa746bca211b1c11016,61df8999cc7c1c6984f5f11d,61e0502413f7285ab3af7ba5,$0.42,42.0,14.0,5.0,5.0,5,ta,ta,1.0,0.0,{},1642090794858.0,1642090794858.0,3356.0,3356.0,1291,2065.0,1642090662014.0,1642090798214.0,,,,,,False,False,False,False,True,False
335,61e0512eaa09f84b60e4b180,run1,quiz,False,G5,,,,5e19e3a846ef8226677f05ab,61df8999cc7c1c6984f5f11d,61e0502b5d5c43ac54465f14,$1.48,148.0,50.0,6.0,6.0,4,se-ki,seki,1.0,0.0,{},1642090796315.0,1642090796315.0,1125.0,1125.0,356,769.0,1642090628729.0,1642090797440.0,,,,,,False,False,False,False,True,False
338,61e05130aa09f84b60e4b183,run1,tutorial,False,G3,,,,60e87324309700b7d549d491,61df8999cc7c1c6984f5f11d,61e0501bfd26a345e8c26caa,$1.29,129.0,44.0,9.0,9.0,5,ka-so,kaso,1.0,0.0,{},1642090795113.0,1642090795113.0,5492.0,5492.0,4698,794.0,1642090619434.0,1642090800605.0,,,,,,False,False,False,False,True,False
340,61e05131aa09f84b60e4b185,run1,quiz,False,G5,,,,5e19e3a846ef8226677f05ab,61df8999cc7c1c6984f5f11d,61e0502b5d5c43ac54465f14,$1.51,151.0,51.0,7.0,7.0,4,se-tu,setu,1.0,0.0,{},1642090798443.0,1642090798443.0,1925.0,1925.0,412,1513.0,1642090628729.0,1642090800368.0,,,,,,False,False,False,False,True,False
341,61e05131aa09f84b60e4b186,run1,quiz,False,G12,,,,5efebc57a352be3d0dff46a7,61df8999cc7c1c6984f5f11d,61e0503717977383a741f3ea,$0.18,18.0,6.0,1.0,1.0,3,tu,tu,1.0,0.0,{},1642090798825.0,1642090798825.0,3420.0,3420.0,2104,1316.0,1642090735755.0,1642090802245.0,,,,,,False,False,False,False,True,False
342,61e05131aa09f84b60e4b187,run1,quiz,False,G2,,,,608926794eed2203be5574ee,61df8999cc7c1c6984f5f11d,61e05001cad36d19f0c15718,$0.57,57.0,19.0,5.0,5.0,2,hi-no,hino,1.0,0.0,{},1642090796175.0,1642090796175.0,5386.0,5386.0,2773,2613.0,1642090597389.0,1642090801561.0,,,,,,False,False,False,False,True,False
343,61e05132aa09f84b60e4b188,run1,quiz,False,G8,,,,5ec43aa746bca211b1c11016,61df8999cc7c1c6984f5f11d,61e0502413f7285ab3af7ba5,$0.45,45.0,15.0,1.0,1.0,5,ho,ho,1.0,0.0,{},1642090799224.0,1642090799224.0,2717.0,2717.0,1388,1329.0,1642090662014.0,1642090801941.0,,,,,,False,False,False,False,True,False
344,61e05132aa09f84b60e4b189,run1,quiz,False,G10,,,,5c488d5d30525a000103bc57,61df8999cc7c1c6984f5f11d,61e05034d9819c68472fe83d,$0.21,21.0,8.0,3.0,3.0,5,su,su,1.0,0.0,{},1642090798174.0,1642090798174.0,4356.0,4356.0,3114,1242.0,1642090690306.0,1642090802530.0,,,,,,False,False,False,False,True,False
347,61e05133aa09f84b60e4b18c,run1,quiz,False,G5,,,,5e19e3a846ef8226677f05ab,61df8999cc7c1c6984f5f11d,61e0502b5d5c43ac54465f14,$1.54,154.0,52.0,8.0,8.0,4,ki-se,kise,1.0,0.0,{},1642090801371.0,1642090801371.0,1053.0,1053.0,445,608.0,1642090628729.0,1642090802424.0,,,,,,False,False,False,False,True,False
348,61e05134aa09f84b60e4b18d,run1,quiz,False,G3,,,,60e87324309700b7d549d491,61df8999cc7c1c6984f5f11d,61e0501bfd26a345e8c26caa,$1.32,132.0,44.0,9.0,9.0,5,ka-so,kaso,1.0,0.0,{},1642090801608.0,1642090801608.0,2644.0,2644.0,1012,1632.0,1642090619434.0,1642090804252.0,,,,,,False,False,False,False,True,False
350,61e05135aa09f84b60e4b18f,run1,quiz,False,G12,,,,5efebc57a352be3d0dff46a7,61df8999cc7c1c6984f5f11d,61e0503717977383a741f3ea,$0.21,21.0,7.0,2.0,2.0,3,na,na,1.0,0.0,{},1642090803247.0,1642090803247.0,2408.0,2408.0,1360,1048.0,1642090735755.0,1642090805655.0,,,,,,False,False,False,False,True,False
351,61e05135aa09f84b60e4b190,run1,quiz,False,G5,,,,5e19e3a846ef8226677f05ab,61df8999cc7c1c6984f5f11d,61e0502b5d5c43ac54465f14,$1.57,157.0,53.0,9.0,9.0,4,ki-se-na,kisena,1.0,0.0,{},1642090803428.0,1642090803428.0,1189.0,1189.0,316,873.0,1642090628729.0,1642090804617.0,,,,,,False,False,False,False,True,False
354,61e05136aa09f84b60e4b193,run1,quiz,False,G3,,,,60e87324309700b7d549d491,61df8999cc7c1c6984f5f11d,61e0501bfd26a345e8c26caa,$1.32,132.0,45.0,1.0,1.0,5,ti,tui,0.0,0.0,{},1642090805257.0,1642090805257.0,1398.0,1398.0,864,534.0,1642090619434.0,1642090806655.0,,,,,,False,False,False,False,True,False
355,61e05136aa09f84b60e4b194,run1,quiz,False,G8,,,,5ec43aa746bca211b1c11016,61df8999cc7c1c6984f5f11d,61e0502413f7285ab3af7ba5,$0.48,48.0,16.0,2.0,2.0,5,ne,ne,1.0,0.0,{},1642090802952.0,1642090802952.0,3613.0,3613.0,2349,1264.0,1642090662014.0,1642090806565.0,,,,,,False,False,False,False,True,False
356,61e05137aa09f84b60e4b195,run1,tutorial,False,G10,,,,5c488d5d30525a000103bc57,61df8999cc7c1c6984f5f11d,61e05034d9819c68472fe83d,$0.21,21.0,9.0,4.0,4.0,5,ti,ti,1.0,0.0,{},1642090803532.0,1642090803532.0,3861.0,3861.0,2435,1426.0,1642090690306.0,1642090807393.0,,,,,,False,False,False,False,True,False
359,61e05137aa09f84b60e4b198,run1,tutorial,False,G7,,,,6166d95a22c741fea351f906,61df8999cc7c1c6984f5f11d,61e0503a92a79e2ccaa7c81c,$0.55,55.0,20.0,6.0,6.0,5,ku-ne,kune,1.0,0.0,{},1642090789808.0,1642090789808.0,16496.0,16496.0,10773,5723.0,1642090626149.0,1642090806304.0,,,,,,False,False,False,False,True,False
362,61e05138aa09f84b60e4b19b,run1,quiz,False,G3,,,,60e87324309700b7d549d491,61df8999cc7c1c6984f5f11d,61e0501bfd26a345e8c26caa,$1.34,134.0,45.0,1.0,1.0,5,ti,ti,1.0,1.0,{},1642090805257.0,1642090806658.0,3638.0,2237.0,1394,843.0,1642090619434.0,1642090808895.0,,,,,,False,False,False,False,True,False
363,61e05139aa09f84b60e4b19c,run1,quiz,False,G12,,,,5efebc57a352be3d0dff46a7,61df8999cc7c1c6984f5f11d,61e0503717977383a741f3ea,$0.24,24.0,8.0,3.0,3.0,3,ko,ko,1.0,0.0,{},1642090806657.0,1642090806657.0,3383.0,3383.0,2004,1379.0,1642090735755.0,1642090810040.0,,,,,,False,False,False,False,True,False
364,61e05139aa09f84b60e4b19d,run1,tutorial,False,G6,,,,5aff493f331e8100018f130d,61df8999cc7c1c6984f5f11d,61e0502c337b071611866160,$0.39,39.0,14.0,5.0,5.0,4,ko-nu,konu,1.0,0.0,"{'1642090804800': 'blurred', '1642090808626': 'focused'}",1642090750067.0,1642090750067.0,58655.0,58655.0,51036,7619.0,1642090636188.0,1642090808722.0,,,,,,True,False,False,False,True,False
365,61e0513aaa09f84b60e4b19e,run1,tutorial,False,G5,,,,5e19e3a846ef8226677f05ab,61df8999cc7c1c6984f5f11d,61e0502b5d5c43ac54465f14,$1.57,157.0,54.0,0.0,10.0,4,ki-se-ki,kiseki,1.0,0.0,{},1642090805620.0,1642090805620.0,3533.0,3533.0,1828,1705.0,1642090628729.0,1642090809153.0,,,,,,False,False,False,False,True,False
368,61e0513baa09f84b60e4b1a1,run1,quiz,False,G8,,,,5ec43aa746bca211b1c11016,61df8999cc7c1c6984f5f11d,61e0502413f7285ab3af7ba5,$0.51,51.0,17.0,3.0,3.0,5,ki,ki,1.0,0.0,{},1642090807574.0,1642090807574.0,3471.0,3471.0,2431,1040.0,1642090662014.0,1642090811045.0,,,,,,False,False,False,False,True,False
370,61e0513baa09f84b60e4b1a3,run1,quiz,False,G3,,,,60e87324309700b7d549d491,61df8999cc7c1c6984f5f11d,61e0501bfd26a345e8c26caa,$1.37,137.0,46.0,2.0,2.0,5,nu,nu,1.0,0.0,{},1642090809899.0,1642090809899.0,1657.0,1657.0,1076,581.0,1642090619434.0,1642090811556.0,,,,,,False,False,False,False,True,False
374,61e0513caa09f84b60e4b1a7,run1,quiz,False,G7,,,,6166d95a22c741fea351f906,61df8999cc7c1c6984f5f11d,61e0503a92a79e2ccaa7c81c,$0.58,58.0,20.0,6.0,6.0,5,ku-ne,kune,1.0,0.0,{},1642090807307.0,1642090807307.0,3770.0,3770.0,1716,2054.0,1642090626149.0,1642090811077.0,,,,,,False,False,False,False,True,False
375,61e0513daa09f84b60e4b1a8,run1,quiz,False,G5,,,,5e19e3a846ef8226677f05ab,61df8999cc7c1c6984f5f11d,61e0502b5d5c43ac54465f14,$1.6,160.0,54.0,0.0,10.0,4,ki-se-ki,kiseki,1.0,0.0,{},1642090810155.0,1642090810155.0,1757.0,1757.0,189,1568.0,1642090628729.0,1642090811912.0,,,,,,False,False,False,False,True,False
376,61e0513daa09f84b60e4b1a9,run1,quiz,False,G3,,,,60e87324309700b7d549d491,61df8999cc7c1c6984f5f11d,61e0501bfd26a345e8c26caa,$1.4,140.0,47.0,3.0,3.0,5,he,he,1.0,0.0,{},1642090812560.0,1642090812560.0,1269.0,1269.0,734,535.0,1642090619434.0,1642090813829.0,,,,,,False,False,False,False,True,False
378,61e0513eaa09f84b60e4b1ab,run1,quiz,True,G5,,,,5e19e3a846ef8226677f05ab,61df8999cc7c1c6984f5f11d,61e0502b5d5c43ac54465f14,$1.63,163.0,55.0,1.0,1.0,4,na,na,1.0,0.0,{},1642090812915.0,1642090812915.0,614.0,614.0,285,329.0,1642090628729.0,1642090813529.0,,,,,,False,False,False,False,True,False
379,61e0513faa09f84b60e4b1ac,run1,quiz,False,G10,,,,5c488d5d30525a000103bc57,61df8999cc7c1c6984f5f11d,61e05034d9819c68472fe83d,$0.24,24.0,9.0,4.0,4.0,5,ti,ti,1.0,0.0,{},1642090808398.0,1642090808398.0,7485.0,7485.0,6468,1017.0,1642090690306.0,1642090815883.0,,,,,,False,False,False,False,True,False
380,61e0513faa09f84b60e4b1ad,run1,quiz,False,G8,,,,5ec43aa746bca211b1c11016,61df8999cc7c1c6984f5f11d,61e0502413f7285ab3af7ba5,$0.54,54.0,18.0,4.0,4.0,5,su,su,1.0,0.0,{},1642090812055.0,1642090812055.0,3677.0,3677.0,1950,1727.0,1642090662014.0,1642090815732.0,,,,,,False,False,False,False,True,False
381,61e05140aa09f84b60e4b1ae,run1,quiz,False,G7,,,,6166d95a22c741fea351f906,61df8999cc7c1c6984f5f11d,61e0503a92a79e2ccaa7c81c,$0.61,61.0,21.0,1.0,1.0,5,ne,ne,1.0,0.0,{},1642090812079.0,1642090812079.0,3278.0,3278.0,2379,899.0,1642090626149.0,1642090815357.0,,,,,,False,False,False,False,True,False
382,61e05141aa09f84b60e4b1af,run1,quiz,True,G5,,,,5e19e3a846ef8226677f05ab,61df8999cc7c1c6984f5f11d,61e0502b5d5c43ac54465f14,$1.66,166.0,56.0,2.0,2.0,4,ki,ki,1.0,0.0,{},1642090814532.0,1642090814532.0,1757.0,1757.0,572,1185.0,1642090628729.0,1642090816289.0,,,,,,False,False,False,False,True,False
386,61e05142aa09f84b60e4b1b3,run1,tutorial,False,G2,,,,608926794eed2203be5574ee,61df8999cc7c1c6984f5f11d,61e05001cad36d19f0c15718,$0.57,57.0,20.0,6.0,6.0,2,hi-ta,hita,1.0,0.0,{},1642090802567.0,1642090802567.0,15227.0,15227.0,3020,12207.0,1642090597389.0,1642090817794.0,,,,,,False,False,False,False,True,False
387,61e05142aa09f84b60e4b1b4,run1,quiz,False,G3,,,,60e87324309700b7d549d491,61df8999cc7c1c6984f5f11d,61e0501bfd26a345e8c26caa,$1.43,143.0,48.0,4.0,4.0,5,so,so,1.0,0.0,{},1642090814833.0,1642090814833.0,4112.0,4112.0,517,3595.0,1642090619434.0,1642090818945.0,,,,,,False,False,False,False,True,False
388,61e05143aa09f84b60e4b1b5,run1,quiz,True,G5,,,,5e19e3a846ef8226677f05ab,61df8999cc7c1c6984f5f11d,61e0502b5d5c43ac54465f14,$1.69,169.0,57.0,3.0,3.0,4,tu,tu,1.0,0.0,{},1642090817292.0,1642090817292.0,1349.0,1349.0,316,1033.0,1642090628729.0,1642090818641.0,,,,,,False,False,False,False,True,False
389,61e05143aa09f84b60e4b1b6,run1,quiz,False,G8,,,,5ec43aa746bca211b1c11016,61df8999cc7c1c6984f5f11d,61e0502413f7285ab3af7ba5,$0.57,57.0,19.0,5.0,5.0,5,ta,ta,1.0,0.0,{},1642090816741.0,1642090816741.0,2975.0,2975.0,1920,1055.0,1642090662014.0,1642090819716.0,,,,,,False,False,False,False,True,False
390,61e05144aa09f84b60e4b1b7,run1,quiz,False,G6,,,,5aff493f331e8100018f130d,61df8999cc7c1c6984f5f11d,61e0502c337b071611866160,$0.42,42.0,14.0,5.0,5.0,4,ko-nu,konu,1.0,0.0,{},1642090809732.0,1642090809732.0,9274.0,9274.0,2398,6876.0,1642090636188.0,1642090819006.0,,,,,,False,False,False,False,True,False
391,61e05144aa09f84b60e4b1b8,run1,quiz,False,G3,,,,60e87324309700b7d549d491,61df8999cc7c1c6984f5f11d,61e0501bfd26a345e8c26caa,$1.46,146.0,49.0,5.0,5.0,5,ka,ka,1.0,0.0,{},1642090819949.0,1642090819949.0,698.0,698.0,262,436.0,1642090619434.0,1642090820647.0,,,,,,False,False,False,False,True,False
392,61e05145aa09f84b60e4b1b9,run1,quiz,False,G7,,,,6166d95a22c741fea351f906,61df8999cc7c1c6984f5f11d,61e0503a92a79e2ccaa7c81c,$0.64,64.0,22.0,2.0,2.0,5,to,to,1.0,0.0,{},1642090816359.0,1642090816359.0,3272.0,3272.0,2160,1112.0,1642090626149.0,1642090819631.0,,,,,,False,False,False,False,True,False
394,61e05146aa09f84b60e4b1bb,run1,quiz,False,G10,,,,5c488d5d30525a000103bc57,61df8999cc7c1c6984f5f11d,61e05034d9819c68472fe83d,$0.27,27.0,10.0,1.0,1.0,5,no,no,1.0,0.0,{},1642090816899.0,1642090816899.0,5558.0,5558.0,4242,1316.0,1642090690306.0,1642090822457.0,,,,,,False,False,False,False,True,False
395,61e05146aa09f84b60e4b1bc,run1,quiz,True,G5,,,,5e19e3a846ef8226677f05ab,61df8999cc7c1c6984f5f11d,61e0502b5d5c43ac54465f14,$1.72,172.0,58.0,4.0,4.0,4,se,se,1.0,0.0,{},1642090819645.0,1642090819645.0,1508.0,1508.0,411,1097.0,1642090628729.0,1642090821153.0,,,,,,False,False,False,False,True,False
397,61e05146aa09f84b60e4b1be,run1,quiz,False,G3,,,,60e87324309700b7d549d491,61df8999cc7c1c6984f5f11d,61e0501bfd26a345e8c26caa,$1.49,149.0,50.0,6.0,6.0,5,ka-ti,kati,1.0,0.0,{},1642090821651.0,1642090821651.0,1285.0,1285.0,443,842.0,1642090619434.0,1642090822936.0,,,,,,False,False,False,False,True,False
399,61e05146aa09f84b60e4b1c0,run1,tutorial,False,G12,,,,5efebc57a352be3d0dff46a7,61df8999cc7c1c6984f5f11d,61e0503717977383a741f3ea,$0.24,24.0,9.0,4.0,4.0,3,ko-tu,kotu,1.0,0.0,"{'1642090814717': 'blurred', '1642090820620': 'focused'}",1642090811042.0,1642090811042.0,12390.0,12390.0,10583,1807.0,1642090735755.0,1642090823432.0,,,,,,True,False,False,False,True,False
401,61e05148aa09f84b60e4b1c2,run1,quiz,True,G5,,,,5e19e3a846ef8226677f05ab,61df8999cc7c1c6984f5f11d,61e0502b5d5c43ac54465f14,$1.75,175.0,59.0,5.0,5.0,4,se-na,sena,1.0,0.0,{},1642090822155.0,1642090822155.0,958.0,958.0,349,609.0,1642090628729.0,1642090823113.0,,,,,,False,False,False,False,True,False
402,61e05148aa09f84b60e4b1c3,run1,quiz,False,G2,,,,608926794eed2203be5574ee,61df8999cc7c1c6984f5f11d,61e05001cad36d19f0c15718,$0.6,60.0,20.0,6.0,6.0,2,hi-ta,hita,1.0,0.0,{},1642090818798.0,1642090818798.0,5259.0,5259.0,2201,3058.0,1642090597389.0,1642090824057.0,,,,,,False,False,False,False,True,False
405,61e0514aaa09f84b60e4b1c6,run1,quiz,False,G7,,,,6166d95a22c741fea351f906,61df8999cc7c1c6984f5f11d,61e0503a92a79e2ccaa7c81c,$0.67,67.0,23.0,3.0,3.0,5,ha,ha,1.0,0.0,{},1642090820633.0,1642090820633.0,3772.0,3772.0,2499,1273.0,1642090626149.0,1642090824405.0,,,,,,False,False,False,False,True,False
406,61e0514aaa09f84b60e4b1c7,run1,quiz,False,G10,,,,5c488d5d30525a000103bc57,61df8999cc7c1c6984f5f11d,61e05034d9819c68472fe83d,$0.3,30.0,11.0,2.0,2.0,5,ka,ka,1.0,0.0,{},1642090823462.0,1642090823462.0,3062.0,3062.0,2414,648.0,1642090690306.0,1642090826524.0,,,,,,False,False,False,False,True,False
408,61e0514aaa09f84b60e4b1c9,run1,quiz,False,G3,,,,60e87324309700b7d549d491,61df8999cc7c1c6984f5f11d,61e0501bfd26a345e8c26caa,$1.52,152.0,51.0,7.0,7.0,5,ka-nu,kanu,1.0,0.0,{},1642090823940.0,1642090823940.0,2932.0,2932.0,1907,1025.0,1642090619434.0,1642090826872.0,,,,,,False,False,False,False,True,False
411,61e0514aaa09f84b60e4b1cc,run1,tutorial,False,G14,,,,5d6d15ce424136001af41fbc,61df8999cc7c1c6984f5f11d,61e0503662209e1bd2040d38,$0,0.0,1.0,1.0,1.0,4,sa,sa,1.0,0.0,{},1642090817634.0,1642090817634.0,6333.0,6333.0,4112,2221.0,1642090807617.0,1642090823967.0,,,,,,False,False,False,False,True,False
412,61e0514baa09f84b60e4b1cd,run1,quiz,False,G12,,,,5efebc57a352be3d0dff46a7,61df8999cc7c1c6984f5f11d,61e0503717977383a741f3ea,$0.27,27.0,9.0,4.0,4.0,3,ko-tu,kotu,1.0,0.0,{},1642090824435.0,1642090824435.0,3701.0,3701.0,1896,1805.0,1642090735755.0,1642090828136.0,,,,,,False,False,False,False,True,False
415,61e0514daa09f84b60e4b1d0,run1,quiz,True,G5,,,,5e19e3a846ef8226677f05ab,61df8999cc7c1c6984f5f11d,61e0502b5d5c43ac54465f14,$1.78,178.0,60.0,6.0,6.0,4,se-ki,seki,1.0,0.0,{},1642090824115.0,1642090824115.0,3886.0,3886.0,1253,2633.0,1642090628729.0,1642090828001.0,,,,,,False,False,False,False,True,False
417,61e0514daa09f84b60e4b1d2,run1,quiz,False,G3,,,,60e87324309700b7d549d491,61df8999cc7c1c6984f5f11d,61e0501bfd26a345e8c26caa,$1.55,155.0,52.0,8.0,8.0,5,ka-he,kahe,1.0,0.0,{},1642090827877.0,1642090827877.0,1804.0,1804.0,446,1358.0,1642090619434.0,1642090829681.0,,,,,,False,False,False,False,True,False
419,61e0514eaa09f84b60e4b1d4,run1,quiz,False,G6,,,,5aff493f331e8100018f130d,61df8999cc7c1c6984f5f11d,61e0502c337b071611866160,$0.45,45.0,15.0,1.0,1.0,4,nu,nu,1.0,0.0,{},1642090820020.0,1642090820020.0,8978.0,8978.0,6870,2108.0,1642090636188.0,1642090828998.0,,,,,,False,False,False,False,True,False
421,61e0514eaa09f84b60e4b1d6,run1,quiz,False,G7,,,,6166d95a22c741fea351f906,61df8999cc7c1c6984f5f11d,61e0503a92a79e2ccaa7c81c,$0.7,70.0,24.0,4.0,4.0,5,si,si,1.0,0.0,{},1642090825407.0,1642090825407.0,3572.0,3572.0,2426,1146.0,1642090626149.0,1642090828979.0,,,,,,False,False,False,False,True,False
422,61e0514eaa09f84b60e4b1d7,run1,quiz,False,G10,,,,5c488d5d30525a000103bc57,61df8999cc7c1c6984f5f11d,61e05034d9819c68472fe83d,$0.33,33.0,12.0,3.0,3.0,5,su,su,1.0,0.0,{},1642090827528.0,1642090827528.0,3496.0,3496.0,2362,1134.0,1642090690306.0,1642090831024.0,,,,,,False,False,False,False,True,False
423,61e0514eaa09f84b60e4b1d8,run1,quiz,False,G2,,,,608926794eed2203be5574ee,61df8999cc7c1c6984f5f11d,61e05001cad36d19f0c15718,$0.63,63.0,21.0,1.0,1.0,2,no,no,1.0,0.0,{},1642090825062.0,1642090825062.0,5603.0,5603.0,3658,1945.0,1642090597389.0,1642090830665.0,,,,,,False,False,False,False,True,False
426,61e0514faa09f84b60e4b1db,run1,quiz,True,G5,,,,5e19e3a846ef8226677f05ab,61df8999cc7c1c6984f5f11d,61e0502b5d5c43ac54465f14,$1.81,181.0,61.0,7.0,7.0,4,se-tu,setu,1.0,0.0,{},1642090829003.0,1642090829003.0,1254.0,1254.0,317,937.0,1642090628729.0,1642090830257.0,,,,,,False,False,False,False,True,False
428,61e0514faa09f84b60e4b1dd,run1,quiz,False,G3,,,,60e87324309700b7d549d491,61df8999cc7c1c6984f5f11d,61e0501bfd26a345e8c26caa,$1.58,158.0,53.0,9.0,9.0,5,ka-so,kaso,1.0,0.0,{},1642090830684.0,1642090830684.0,1407.0,1407.0,642,765.0,1642090619434.0,1642090832091.0,,,,,,False,False,False,False,True,False
429,61e05150aa09f84b60e4b1de,run1,quiz,False,G14,,,,5d6d15ce424136001af41fbc,61df8999cc7c1c6984f5f11d,61e0503662209e1bd2040d38,$0.03,3.0,1.0,1.0,1.0,4,sa,sa,1.0,0.0,{},1642090824971.0,1642090824971.0,4521.0,4521.0,2875,1646.0,1642090807617.0,1642090829492.0,,,,,,False,False,False,False,True,False
433,61e05152aa09f84b60e4b1e2,run1,quiz,False,G10,,,,5c488d5d30525a000103bc57,61df8999cc7c1c6984f5f11d,61e05034d9819c68472fe83d,$0.36,36.0,13.0,4.0,4.0,5,ti,ti,1.0,0.0,{},1642090832028.0,1642090832028.0,2542.0,2542.0,1514,1028.0,1642090690306.0,1642090834570.0,,,,,,False,False,False,False,True,False
434,61e05152aa09f84b60e4b1e3,run1,quiz,False,G7,,,,6166d95a22c741fea351f906,61df8999cc7c1c6984f5f11d,61e0503a92a79e2ccaa7c81c,$0.73,73.0,25.0,5.0,5.0,5,ku,ku,1.0,0.0,{},1642090829982.0,1642090829982.0,2748.0,2748.0,2098,650.0,1642090626149.0,1642090832730.0,,,,,,False,False,False,False,True,False
436,61e05152aa09f84b60e4b1e5,run1,quiz,True,G5,,,,5e19e3a846ef8226677f05ab,61df8999cc7c1c6984f5f11d,61e0502b5d5c43ac54465f14,$1.84,184.0,62.0,8.0,8.0,4,ki-se,kise,1.0,0.0,{},1642090831261.0,1642090831261.0,2276.0,2276.0,1147,1129.0,1642090628729.0,1642090833537.0,,,,,,False,False,False,False,True,False
437,61e05153aa09f84b60e4b1e6,run1,tutorial,False,G8,,,,5ec43aa746bca211b1c11016,61df8999cc7c1c6984f5f11d,61e0502413f7285ab3af7ba5,$0.57,57.0,20.0,6.0,6.0,5,ta-ho,taho,1.0,0.0,{},1642090820729.0,1642090820729.0,14061.0,14061.0,11339,2722.0,1642090662014.0,1642090834790.0,,,,,,False,False,False,False,True,False
439,61e05154aa09f84b60e4b1e8,run1,quiz,False,G2,,,,608926794eed2203be5574ee,61df8999cc7c1c6984f5f11d,61e05001cad36d19f0c15718,$0.66,66.0,22.0,2.0,2.0,2,ta,ta,1.0,0.0,{},1642090831671.0,1642090831671.0,4603.0,4603.0,2137,2466.0,1642090597389.0,1642090836274.0,,,,,,False,False,False,False,True,False
440,61e05154aa09f84b60e4b1e9,run1,quiz,False,G6,,,,5aff493f331e8100018f130d,61df8999cc7c1c6984f5f11d,61e0502c337b071611866160,$0.48,48.0,16.0,2.0,2.0,4,he,he,1.0,0.0,{},1642090830009.0,1642090830009.0,5385.0,5385.0,2877,2508.0,1642090636188.0,1642090835394.0,,,,,,False,False,False,False,True,False
441,61e05155aa09f84b60e4b1ea,run1,quiz,False,G12,,,,5efebc57a352be3d0dff46a7,61df8999cc7c1c6984f5f11d,61e0503717977383a741f3ea,$0.3,30.0,10.0,1.0,1.0,3,tu,tu,1.0,0.0,"{'1642090834627': 'blurred', '1642090835948': 'focused'}",1642090829139.0,1642090829139.0,8702.0,8702.0,7592,1110.0,1642090735755.0,1642090837841.0,,,,,,True,False,False,False,True,False
443,61e05156aa09f84b60e4b1ec,run1,tutorial,False,G10,,,,5c488d5d30525a000103bc57,61df8999cc7c1c6984f5f11d,61e05034d9819c68472fe83d,$0.36,36.0,14.0,5.0,5.0,5,he,he,1.0,0.0,{},1642090835574.0,1642090835574.0,3193.0,3193.0,2528,665.0,1642090690306.0,1642090838767.0,,,,,,False,False,False,False,True,False
444,61e05156aa09f84b60e4b1ed,run1,quiz,False,G7,,,,6166d95a22c741fea351f906,61df8999cc7c1c6984f5f11d,61e0503a92a79e2ccaa7c81c,$0.76,76.0,26.0,6.0,6.0,5,ku-ne,kune,1.0,0.0,{},1642090833731.0,1642090833731.0,3523.0,3523.0,2141,1382.0,1642090626149.0,1642090837254.0,,,,,,False,False,False,False,True,False
445,61e05157aa09f84b60e4b1ee,run1,tutorial,False,G3,,,,60e87324309700b7d549d491,61df8999cc7c1c6984f5f11d,61e0501bfd26a345e8c26caa,$1.58,158.0,54.0,0.0,10.0,5,nu-ka,nuka,1.0,0.0,{},1642090833095.0,1642090833095.0,6324.0,6324.0,5403,921.0,1642090619434.0,1642090839419.0,,,,,,False,False,False,False,True,False
446,61e05157aa09f84b60e4b1ef,run1,quiz,True,G5,,,,5e19e3a846ef8226677f05ab,61df8999cc7c1c6984f5f11d,61e0502b5d5c43ac54465f14,$1.84,184.0,63.0,9.0,9.0,4,ki-se-na,kitu,0.0,0.0,{},1642090834540.0,1642090834540.0,3853.0,3853.0,3012,841.0,1642090628729.0,1642090838393.0,,,,,,False,False,False,False,True,False
449,61e05158aa09f84b60e4b1f2,run1,quiz,False,G6,,,,5aff493f331e8100018f130d,61df8999cc7c1c6984f5f11d,61e0502c337b071611866160,$0.51,51.0,17.0,3.0,3.0,4,sa,sa,1.0,0.0,{},1642090836403.0,1642090836403.0,3035.0,3035.0,1371,1664.0,1642090636188.0,1642090839438.0,,,,,,False,False,False,False,True,False
451,61e05159aa09f84b60e4b1f4,run1,quiz,False,G12,,,,5efebc57a352be3d0dff46a7,61df8999cc7c1c6984f5f11d,61e0503717977383a741f3ea,$0.33,33.0,11.0,2.0,2.0,3,na,na,1.0,0.0,{},1642090838843.0,1642090838843.0,3323.0,3323.0,1662,1661.0,1642090735755.0,1642090842166.0,,,,,,False,False,False,False,True,False
452,61e0515aaa09f84b60e4b1f5,run1,quiz,False,G2,,,,608926794eed2203be5574ee,61df8999cc7c1c6984f5f11d,61e05001cad36d19f0c15718,$0.69,69.0,23.0,3.0,3.0,2,ta-no,tano,1.0,0.0,{},1642090837281.0,1642090837281.0,4744.0,4744.0,2046,2698.0,1642090597389.0,1642090842025.0,,,,,,False,False,False,False,True,False
453,61e0515aaa09f84b60e4b1f6,run1,quiz,False,G8,,,,5ec43aa746bca211b1c11016,61df8999cc7c1c6984f5f11d,61e0502413f7285ab3af7ba5,$0.6,60.0,20.0,6.0,6.0,5,ta-ho,taho,1.0,0.0,{},1642090835798.0,1642090835798.0,6495.0,6495.0,3231,3264.0,1642090662014.0,1642090842293.0,,,,,,False,False,False,False,True,False
454,61e0515aaa09f84b60e4b1f7,run1,quiz,False,G3,,,,60e87324309700b7d549d491,61df8999cc7c1c6984f5f11d,61e0501bfd26a345e8c26caa,$1.61,161.0,54.0,0.0,10.0,5,nu-ka,nuka,1.0,0.0,{},1642090840423.0,1642090840423.0,2459.0,2459.0,1322,1137.0,1642090619434.0,1642090842882.0,,,,,,False,False,False,False,True,False
457,61e0515baa09f84b60e4b1fa,run1,quiz,True,G5,,,,5e19e3a846ef8226677f05ab,61df8999cc7c1c6984f5f11d,61e0502b5d5c43ac54465f14,$1.84,184.0,63.0,9.0,9.0,4,ki-se-na,kiki,0.0,1.0,{},1642090834540.0,1642090838395.0,7838.0,3983.0,2861,1122.0,1642090628729.0,1642090842378.0,,,,,,False,False,False,False,True,False
459,61e0515caa09f84b60e4b1fc,run1,quiz,True,G5,,,,5e19e3a846ef8226677f05ab,61df8999cc7c1c6984f5f11d,61e0502b5d5c43ac54465f14,$1.84,184.0,63.0,9.0,9.0,4,ki-se-na,kina,0.0,2.0,{},1642090834540.0,1642090842379.0,9126.0,1287.0,581,706.0,1642090628729.0,1642090843666.0,,,,,,False,False,False,False,True,False
460,61e0515caa09f84b60e4b1fd,run1,tutorial,False,G15,,,,61294f256e188cea756a03e6,61df8999cc7c1c6984f5f11d,61e05036b57db4e8d696b04c,$0,0.0,1.0,1.0,1.0,5,te,3,0.0,0.0,{},1642090832746.0,1642090832746.0,11717.0,11717.0,10410,1307.0,1642090828817.0,1642090844463.0,,,,,,False,False,False,False,True,False
462,61e0515daa09f84b60e4b1ff,run1,quiz,False,G10,,,,5c488d5d30525a000103bc57,61df8999cc7c1c6984f5f11d,61e05034d9819c68472fe83d,$0.39,39.0,14.0,5.0,5.0,5,he,he,1.0,0.0,{},1642090839771.0,1642090839771.0,5658.0,5658.0,4894,764.0,1642090690306.0,1642090845429.0,,,,,,False,False,False,False,True,False
463,61e0515daa09f84b60e4b200,run1,quiz,True,G3,,,,60e87324309700b7d549d491,61df8999cc7c1c6984f5f11d,61e0501bfd26a345e8c26caa,$1.64,164.0,55.0,1.0,1.0,5,ti,ti,1.0,0.0,{},1642090843886.0,1642090843886.0,2328.0,2328.0,1578,750.0,1642090619434.0,1642090846214.0,,,,,,False,False,False,False,True,False
464,61e0515eaa09f84b60e4b201,run1,quiz,False,G6,,,,5aff493f331e8100018f130d,61df8999cc7c1c6984f5f11d,61e0502c337b071611866160,$0.54,54.0,18.0,4.0,4.0,4,ko,ko,1.0,0.0,{},1642090840458.0,1642090840458.0,4592.0,4592.0,2575,2017.0,1642090636188.0,1642090845050.0,,,,,,False,False,False,False,True,False
466,61e0515faa09f84b60e4b203,run1,quiz,False,G12,,,,5efebc57a352be3d0dff46a7,61df8999cc7c1c6984f5f11d,61e0503717977383a741f3ea,$0.36,36.0,12.0,3.0,3.0,3,ko,ko,1.0,0.0,"{'1642090845015': 'blurred', '1642090845906': 'focused'}",1642090843167.0,1642090843167.0,4641.0,4641.0,3579,1062.0,1642090735755.0,1642090847808.0,,,,,,True,False,False,False,True,False
469,61e05160aa09f84b60e4b206,run1,quiz,True,G3,,,,60e87324309700b7d549d491,61df8999cc7c1c6984f5f11d,61e0501bfd26a345e8c26caa,$1.67,167.0,56.0,2.0,2.0,5,nu,nu,1.0,0.0,{},1642090847221.0,1642090847221.0,1379.0,1379.0,620,759.0,1642090619434.0,1642090848600.0,,,,,,False,False,False,False,True,False
470,61e05160aa09f84b60e4b207,run1,quiz,True,G5,,,,5e19e3a846ef8226677f05ab,61df8999cc7c1c6984f5f11d,61e0502b5d5c43ac54465f14,$1.87,187.0,64.0,0.0,10.0,4,ki-se-ki,kiseki,1.0,0.0,{},1642090844668.0,1642090844668.0,2541.0,2541.0,1061,1480.0,1642090628729.0,1642090847209.0,,,,,,False,False,False,False,True,False
471,61e05160aa09f84b60e4b208,run1,quiz,False,G2,,,,608926794eed2203be5574ee,61df8999cc7c1c6984f5f11d,61e05001cad36d19f0c15718,$0.72,72.0,24.0,4.0,4.0,2,hi,hi,1.0,0.0,{},1642090843030.0,1642090843030.0,5204.0,5204.0,2847,2357.0,1642090597389.0,1642090848234.0,,,,,,False,False,False,False,True,False
472,61e05160aa09f84b60e4b209,run1,quiz,False,G8,,,,5ec43aa746bca211b1c11016,61df8999cc7c1c6984f5f11d,61e0502413f7285ab3af7ba5,$0.63,63.0,21.0,1.0,1.0,5,ho,ho,1.0,0.0,{},1642090843306.0,1642090843306.0,5436.0,5436.0,1323,4113.0,1642090662014.0,1642090848742.0,,,,,,False,False,False,False,True,False
473,61e05160aa09f84b60e4b20a,run1,tutorial,False,G14,,,,5d6d15ce424136001af41fbc,61df8999cc7c1c6984f5f11d,61e0503662209e1bd2040d38,$0.03,3.0,2.0,2.0,2.0,4,ke,ke,1.0,0.0,{},1642090830494.0,1642090830494.0,15572.0,15572.0,8810,6762.0,1642090807617.0,1642090846066.0,,,,,,False,False,False,False,True,False
474,61e05161aa09f84b60e4b20b,run1,quiz,False,G10,,,,5c488d5d30525a000103bc57,61df8999cc7c1c6984f5f11d,61e05034d9819c68472fe83d,$0.42,42.0,15.0,1.0,1.0,5,no,no,1.0,0.0,{},1642090846433.0,1642090846433.0,3271.0,3271.0,2594,677.0,1642090690306.0,1642090849704.0,,,,,,False,False,False,False,True,False
475,61e05161aa09f84b60e4b20c,run1,quiz,True,G3,,,,60e87324309700b7d549d491,61df8999cc7c1c6984f5f11d,61e0501bfd26a345e8c26caa,$1.7,170.0,57.0,3.0,3.0,5,he,he,1.0,0.0,{},1642090849604.0,1642090849604.0,463.0,463.0,81,382.0,1642090619434.0,1642090850067.0,,,,,,False,False,False,False,True,False
476,61e05162aa09f84b60e4b20d,run1,quiz,False,G15,,,,61294f256e188cea756a03e6,61df8999cc7c1c6984f5f11d,61e05036b57db4e8d696b04c,$0.03,3.0,1.0,1.0,1.0,5,te,te,1.0,0.0,{},1642090845485.0,1642090845485.0,4738.0,4738.0,3537,1201.0,1642090828817.0,1642090850223.0,,,,,,False,False,False,False,True,False
479,61e05163aa09f84b60e4b210,run1,quiz,True,G3,,,,60e87324309700b7d549d491,61df8999cc7c1c6984f5f11d,61e0501bfd26a345e8c26caa,$1.73,173.0,58.0,4.0,4.0,5,so,so,1.0,0.0,{},1642090851086.0,1642090851086.0,770.0,770.0,228,542.0,1642090619434.0,1642090851856.0,,,,,,False,False,False,False,True,False
481,61e05164aa09f84b60e4b212,run1,tutorial,False,G7,,,,6166d95a22c741fea351f906,61df8999cc7c1c6984f5f11d,61e0503a92a79e2ccaa7c81c,$0.76,76.0,27.0,7.0,7.0,5,ku-to,kuto,1.0,0.0,{},1642090838255.0,1642090838255.0,12516.0,12516.0,10739,1777.0,1642090626149.0,1642090850771.0,,,,,,False,False,False,False,True,False
483,61e05165aa09f84b60e4b214,run1,quiz,False,G8,,,,5ec43aa746bca211b1c11016,61df8999cc7c1c6984f5f11d,61e0502413f7285ab3af7ba5,$0.66,66.0,22.0,2.0,2.0,5,ne,ne,1.0,0.0,{},1642090849750.0,1642090849750.0,3345.0,3345.0,2128,1217.0,1642090662014.0,1642090853095.0,,,,,,False,False,False,False,True,False
485,61e05165aa09f84b60e4b216,run1,quiz,False,G14,,,,5d6d15ce424136001af41fbc,61df8999cc7c1c6984f5f11d,61e0503662209e1bd2040d38,$0.06,6.0,2.0,2.0,2.0,4,ke,ke,1.0,0.0,{},1642090847069.0,1642090847069.0,3865.0,3865.0,2282,1583.0,1642090807617.0,1642090850934.0,,,,,,False,False,False,False,True,False
487,61e05166aa09f84b60e4b218,run1,quiz,False,G10,,,,5c488d5d30525a000103bc57,61df8999cc7c1c6984f5f11d,61e05034d9819c68472fe83d,$0.45,45.0,16.0,2.0,2.0,5,ka,ka,1.0,0.0,{},1642090850709.0,1642090850709.0,4095.0,4095.0,3478,617.0,1642090690306.0,1642090854804.0,,,,,,False,False,False,False,True,False
488,61e05166aa09f84b60e4b219,run1,quiz,True,G3,,,,60e87324309700b7d549d491,61df8999cc7c1c6984f5f11d,61e0501bfd26a345e8c26caa,$1.76,176.0,59.0,5.0,5.0,5,ka,ka,1.0,0.0,{},1642090852860.0,1642090852860.0,2121.0,2121.0,1681,440.0,1642090619434.0,1642090854981.0,,,,,,False,False,False,False,True,False
489,61e05166aa09f84b60e4b21a,run1,quiz,False,G6,,,,5aff493f331e8100018f130d,61df8999cc7c1c6984f5f11d,61e0502c337b071611866160,$0.57,57.0,19.0,5.0,5.0,4,ko-nu,konu,1.0,0.0,{},1642090846066.0,1642090846066.0,7652.0,7652.0,3625,4027.0,1642090636188.0,1642090853718.0,,,,,,False,False,False,False,True,False
491,61e05167aa09f84b60e4b21c,run1,tutorial,False,G15,,,,61294f256e188cea756a03e6,61df8999cc7c1c6984f5f11d,61e05036b57db4e8d696b04c,$0.03,3.0,2.0,2.0,2.0,5,si,Si,0.0,0.0,{},1642090851238.0,1642090851238.0,4316.0,4316.0,3214,1102.0,1642090828817.0,1642090855554.0,,,,,,False,False,False,False,True,False
493,61e05168aa09f84b60e4b21e,run1,quiz,False,G7,,,,6166d95a22c741fea351f906,61df8999cc7c1c6984f5f11d,61e0503a92a79e2ccaa7c81c,$0.79,79.0,27.0,7.0,7.0,5,ku-to,kuto,1.0,0.0,{},1642090851773.0,1642090851773.0,2940.0,2940.0,1308,1632.0,1642090626149.0,1642090854713.0,,,,,,False,False,False,False,True,False
494,61e05168aa09f84b60e4b21f,run1,quiz,False,G8,,,,5ec43aa746bca211b1c11016,61df8999cc7c1c6984f5f11d,61e0502413f7285ab3af7ba5,$0.69,69.0,23.0,3.0,3.0,5,ki,ki,1.0,0.0,{},1642090854104.0,1642090854104.0,2253.0,2253.0,525,1728.0,1642090662014.0,1642090856357.0,,,,,,False,False,False,False,True,False
496,61e05169aa09f84b60e4b221,run1,quiz,True,G3,,,,60e87324309700b7d549d491,61df8999cc7c1c6984f5f11d,61e0501bfd26a345e8c26caa,$1.79,179.0,60.0,6.0,6.0,5,ka-ti,kati,1.0,0.0,{},1642090855987.0,1642090855987.0,1452.0,1452.0,245,1207.0,1642090619434.0,1642090857439.0,,,,,,False,False,False,False,True,False
499,61e0516aaa09f84b60e4b224,run1,quiz,False,G10,,,,5c488d5d30525a000103bc57,61df8999cc7c1c6984f5f11d,61e05034d9819c68472fe83d,$0.48,48.0,17.0,3.0,3.0,5,su,su,1.0,0.0,{},1642090855808.0,1642090855808.0,3337.0,3337.0,2587,750.0,1642090690306.0,1642090859145.0,,,,,,False,False,False,False,True,False
501,61e0516baa09f84b60e4b226,run1,quiz,False,G14,,,,5d6d15ce424136001af41fbc,61df8999cc7c1c6984f5f11d,61e0503662209e1bd2040d38,$0.09,9.0,3.0,1.0,1.0,4,sa,sa,1.0,0.0,{},1642090851938.0,1642090851938.0,4863.0,4863.0,2610,2253.0,1642090807617.0,1642090856801.0,,,,,,False,False,False,False,True,False
502,61e0516baa09f84b60e4b227,run1,quiz,False,G7,,,,6166d95a22c741fea351f906,61df8999cc7c1c6984f5f11d,61e0503a92a79e2ccaa7c81c,$0.82,82.0,28.0,1.0,1.0,5,ne,ne,1.0,0.0,{},1642090855715.0,1642090855715.0,2470.0,2470.0,1454,1016.0,1642090626149.0,1642090858185.0,,,,,,False,False,False,False,True,False
503,61e0516baa09f84b60e4b228,run1,quiz,True,G3,,,,60e87324309700b7d549d491,61df8999cc7c1c6984f5f11d,61e0501bfd26a345e8c26caa,$1.82,182.0,61.0,7.0,7.0,5,ka-nu,kanu,1.0,0.0,{},1642090858443.0,1642090858443.0,1606.0,1606.0,672,934.0,1642090619434.0,1642090860049.0,,,,,,False,False,False,False,True,False
507,61e0516daa09f84b60e4b22c,run1,quiz,False,G2,,,,608926794eed2203be5574ee,61df8999cc7c1c6984f5f11d,61e05001cad36d19f0c15718,$0.75,75.0,25.0,5.0,5.0,2,hi-no,hino,1.0,0.0,{},1642090849241.0,1642090849241.0,11744.0,11744.0,8042,3702.0,1642090597389.0,1642090860985.0,,,,,,False,False,False,False,True,False
508,61e0516daa09f84b60e4b22d,run1,quiz,False,G15,,,,61294f256e188cea756a03e6,61df8999cc7c1c6984f5f11d,61e05036b57db4e8d696b04c,$0.06,6.0,2.0,2.0,2.0,5,si,si,1.0,0.0,{},1642090856567.0,1642090856567.0,4893.0,4893.0,3037,1856.0,1642090828817.0,1642090861460.0,,,,,,False,False,False,False,True,False
509,61e0516daa09f84b60e4b22e,run1,quiz,False,G8,,,,5ec43aa746bca211b1c11016,61df8999cc7c1c6984f5f11d,61e0502413f7285ab3af7ba5,$0.72,72.0,24.0,4.0,4.0,5,su,su,1.0,0.0,{},1642090857367.0,1642090857367.0,4365.0,4365.0,1214,3151.0,1642090662014.0,1642090861732.0,,,,,,False,False,False,False,True,False
510,61e0516eaa09f84b60e4b22f,run1,quiz,True,G3,,,,60e87324309700b7d549d491,61df8999cc7c1c6984f5f11d,61e0501bfd26a345e8c26caa,$1.85,185.0,62.0,8.0,8.0,5,ka-he,kahe,1.0,0.0,{},1642090861054.0,1642090861054.0,1573.0,1573.0,710,863.0,1642090619434.0,1642090862627.0,,,,,,False,False,False,False,True,False
512,61e0516eaa09f84b60e4b231,run1,quiz,False,G10,,,,5c488d5d30525a000103bc57,61df8999cc7c1c6984f5f11d,61e05034d9819c68472fe83d,$0.51,51.0,18.0,4.0,4.0,5,ti,ti,1.0,0.0,{},1642090860148.0,1642090860148.0,3052.0,3052.0,2282,770.0,1642090690306.0,1642090863200.0,,,,,,False,False,False,False,True,False
513,61e0516faa09f84b60e4b232,run1,tutorial,False,G16,,,,5cac8aad785bb400156d3431,61df8999cc7c1c6984f5f11d,61e05032a227ee060599fbb4,$0,0.0,1.0,1.0,1.0,2,ke,ke,1.0,0.0,{'1642090856741': 'focused'},1642090858252.0,1642090858252.0,5846.0,5846.0,3423,2423.0,1642090839390.0,1642090864098.0,,,,,,False,False,False,False,True,False
514,61e0516faa09f84b60e4b233,run1,tutorial,False,G6,,,,5aff493f331e8100018f130d,61df8999cc7c1c6984f5f11d,61e0502c337b071611866160,$0.57,57.0,20.0,6.0,6.0,4,ko-he,kohe,1.0,0.0,{},1642090854728.0,1642090854728.0,7438.0,7438.0,3812,3626.0,1642090636188.0,1642090862166.0,,,,,,False,False,False,False,True,False
516,61e0516faa09f84b60e4b235,run1,quiz,False,G7,,,,6166d95a22c741fea351f906,61df8999cc7c1c6984f5f11d,61e0503a92a79e2ccaa7c81c,$0.85,85.0,29.0,2.0,2.0,5,to,to,1.0,0.0,{},1642090859187.0,1642090859187.0,2680.0,2680.0,1890,790.0,1642090626149.0,1642090861867.0,,,,,,False,False,False,False,True,False
519,61e05171aa09f84b60e4b238,run1,quiz,True,G3,,,,60e87324309700b7d549d491,61df8999cc7c1c6984f5f11d,61e0501bfd26a345e8c26caa,$1.88,188.0,63.0,9.0,9.0,5,ka-so,kaso,1.0,0.0,{},1642090863632.0,1642090863632.0,1793.0,1793.0,428,1365.0,1642090619434.0,1642090865425.0,,,,,,False,False,False,False,True,False
521,61e05171aa09f84b60e4b23a,run1,quiz,False,G14,,,,5d6d15ce424136001af41fbc,61df8999cc7c1c6984f5f11d,61e0503662209e1bd2040d38,$0.12,12.0,4.0,2.0,2.0,4,ke,ke,1.0,0.0,{},1642090857805.0,1642090857805.0,5005.0,5005.0,3528,1477.0,1642090807617.0,1642090862810.0,,,,,,False,False,False,False,True,False
522,61e05173aa09f84b60e4b23b,run1,quiz,False,G15,,,,61294f256e188cea756a03e6,61df8999cc7c1c6984f5f11d,61e05036b57db4e8d696b04c,$0.09,9.0,3.0,1.0,1.0,5,te,te,1.0,0.0,{},1642090862471.0,1642090862471.0,4233.0,4233.0,3189,1044.0,1642090828817.0,1642090866704.0,,,,,,False,False,False,False,True,False
523,61e05173aa09f84b60e4b23c,run1,quiz,False,G8,,,,5ec43aa746bca211b1c11016,61df8999cc7c1c6984f5f11d,61e0502413f7285ab3af7ba5,$0.75,75.0,25.0,5.0,5.0,5,ta,ta,1.0,0.0,{},1642090862741.0,1642090862741.0,4339.0,4339.0,2256,2083.0,1642090662014.0,1642090867080.0,,,,,,False,False,False,False,True,False
524,61e05173aa09f84b60e4b23d,run1,quiz,False,G10,,,,5c488d5d30525a000103bc57,61df8999cc7c1c6984f5f11d,61e05034d9819c68472fe83d,$0.54,54.0,19.0,5.0,5.0,5,he,he,1.0,0.0,{},1642090864204.0,1642090864204.0,3480.0,3480.0,2813,667.0,1642090690306.0,1642090867684.0,,,,,,False,False,False,False,True,False
